This is Dataplot Data File     CHOI.DAT
Fire Research Emission "Trigger"
Mun Choi & Kevin McGrattan
Number of Observations = 4000
Observations per Line Image = 3
Order of Observations on a Line Image--
   1. Time
   2. Emission = Response Variable
   3. Voltage
Statistical Category--Comparing 2 Time Series
                      Auto & Cross Correlation
                      Auto & Cross Spectra
To Read this into Dataplot--
   SKIP 25
   SET READ FORMAT F10.4,F10.3,F10.6
   READ CHOI.DAT    TIME    EMISSION VOLTAGE
 
 
 
 
 
 
     Time    Emission  Voltage
--------------------------------
    0.0000     0.033  0.060827
    0.0050     0.812  0.011922
    0.0100     0.662  0.021933
    0.0150     0.465  0.036482
    0.0200     0.176  0.046773
    0.0250     0.042  0.058988
    0.0300     0.012  0.063615
    0.0350     0.007  0.068917
    0.0400     0.012  0.072104
    0.0450     0.076  0.066250
    0.0500     0.217  0.046478
    0.0550     0.386  0.040173
    0.0600     0.550  0.021324
    0.0650     0.534  0.007513
    0.0700     0.389  0.006306
    0.0750     0.408  0.005665
    0.0800     0.696  0.004868
    0.0850     1.036  0.006145
    0.0900     0.963  0.009623
    0.0950     0.745  0.017032
    0.1000     0.525  0.031116
    0.1050     0.184  0.042768
    0.1100     0.033  0.056713
    0.1150     0.010  0.061474
    0.1200     0.006  0.066534
    0.1250     0.006  0.069974
    0.1300     0.049  0.068056
    0.1350     0.215  0.048656
    0.1400     0.394  0.040651
    0.1450     0.527  0.022281
    0.1500     0.487  0.007755
    0.1550     0.353  0.006788
    0.1600     0.362  0.005665
    0.1650     0.631  0.004788
    0.1700     1.019  0.005745
    0.1750     1.035  0.008240
    0.1800     0.816  0.013916
    0.1850     0.627  0.027947
    0.1900     0.256  0.041322
    0.1950     0.046  0.055899
    0.2000     0.011  0.060919
    0.2050     0.005  0.065022
    0.2100     0.004  0.067675
    0.2150     0.023  0.068630
    0.2200     0.178  0.054461
    0.2250     0.372  0.041707
    0.2300     0.528  0.028127
    0.2350     0.531  0.009215
    0.2400     0.422  0.007513
    0.2450     0.406  0.006145
    0.2500     0.688  0.005266
    0.2550     1.127  0.006386
    0.2600     1.194  0.007593
    0.2650     0.866  0.011757
    0.2700     0.601  0.023770
    0.2750     0.218  0.037705
    0.2800     0.034  0.053389
    0.2850     0.011  0.058805
    0.2900     0.006  0.061567
    0.2950     0.005  0.063802
    0.3000     0.007  0.067865
    0.3050     0.093  0.066724
    0.3100     0.284  0.045005
    0.3150     0.479  0.039125
    0.3200     0.515  0.018566
    0.3250     0.439  0.008484
    0.3300     0.325  0.005985
    0.3350     0.421  0.005665
    0.3400     0.856  0.006306
    0.3450     1.363  0.007190
    0.3500     1.256  0.009215
    0.3550     0.785  0.017286
    0.3600     0.295  0.030115
    0.3650     0.054  0.048955
    0.3700     0.014  0.056713
    0.3750     0.007  0.058897
    0.3800     0.004  0.058988
    0.3850     0.005  0.062216
    0.3900     0.014  0.067961
    0.3950     0.177  0.055629
    0.4000     0.419  0.038651
    0.4050     0.494  0.031756
    0.4100     0.277  0.015089
    0.4150     0.075  0.007351
    0.4200     0.036  0.005905
    0.4250     0.081  0.004948
    0.4300     0.424  0.004948
    0.4350     1.195  0.007351
    0.4400     1.499  0.012336
    0.4450     0.941  0.021672
    0.4500     0.346  0.043447
    0.4550     0.126  0.056622
    0.4600     0.042  0.060366
    0.4650     0.014  0.060735
    0.4700     0.007  0.061104
    0.4750     0.006  0.065682
    0.4800     0.031  0.069589
    0.4850     0.273  0.050255
    0.4900     0.494  0.042382
    0.4950     0.295  0.028667
    0.5000     0.110  0.015762
    0.5050     0.031  0.008808
    0.5100     0.024  0.005107
    0.5150     0.049  0.003995
    0.5200     0.241  0.005346
    0.5250     0.831  0.008402
    0.5300     1.482  0.012585
    0.5350     1.229  0.024563
    0.5400     0.647  0.046576
    0.5450     0.322  0.056080
    0.5500     0.130  0.061012
    0.5550     0.041  0.064646
    0.5600     0.011  0.064177
    0.5650     0.006  0.067770
    0.5700     0.027  0.074550
    0.5750     0.285  0.055719
    0.5800     0.509  0.044030
    0.5850     0.260  0.030934
    0.5900     0.096  0.018395
    0.5950     0.035  0.009460
    0.6000     0.030  0.004629
    0.6050     0.063  0.005346
    0.6100     0.229  0.006306
    0.6150     0.716  0.008078
    0.6200     1.414  0.014251
    0.6250     1.526  0.027857
    0.6300     0.945  0.046379
    0.6350     0.531  0.056080
    0.6400     0.284  0.064364
    0.6450     0.115  0.068822
    0.6500     0.032  0.069301
    0.6550     0.010  0.074747
    0.6600     0.019  0.082156
    0.6650     0.300  0.060735
    0.6700     0.572  0.045789
    0.6750     0.328  0.032766
    0.6800     0.095  0.016692
    0.6850     0.030  0.007593
    0.6900     0.019  0.005346
    0.6950     0.022  0.004788
    0.7000     0.084  0.005187
    0.7050     0.356  0.008240
    0.7100     0.943  0.014083
    0.7150     1.458  0.025448
    0.7200     1.361  0.045888
    0.7250     0.758  0.057620
    0.7300     0.432  0.066534
    0.7350     0.213  0.072689
    0.7400     0.066  0.075635
    0.7450     0.015  0.079022
    0.7500     0.019  0.087305
    0.7550     0.302  0.066439
    0.7600     0.564  0.047762
    0.7650     0.313  0.032215
    0.7700     0.104  0.015089
    0.7750     0.031  0.008402
    0.7800     0.019  0.005266
    0.7850     0.019  0.004550
    0.7900     0.052  0.006226
    0.7950     0.230  0.008321
    0.8000     0.694  0.013666
    0.8050     1.235  0.027230
    0.8100     1.478  0.048358
    0.8150     1.083  0.061938
    0.8200     0.530  0.072396
    0.8250     0.249  0.080937
    0.8300     0.076  0.082563
    0.8350     0.016  0.084819
    0.8400     0.019  0.091087
    0.8450     0.306  0.068056
    0.8500     0.533  0.047564
    0.8550     0.280  0.032215
    0.8600     0.100  0.013833
    0.8650     0.032  0.006145
    0.8700     0.022  0.005107
    0.8750     0.020  0.005745
    0.8800     0.051  0.006306
    0.8850     0.218  0.008321
    0.8900     0.658  0.016269
    0.8950     1.231  0.031939
    0.9000     1.497  0.051665
    0.9050     1.165  0.069397
    0.9100     0.542  0.079726
    0.9150     0.251  0.085955
    0.9200     0.082  0.085955
    0.9250     0.018  0.087514
    0.9300     0.014  0.094825
    0.9350     0.300  0.071230
    0.9400     0.518  0.050557
    0.9450     0.239  0.033135
    0.9500     0.074  0.012171
    0.9550     0.029  0.006065
    0.9600     0.023  0.005346
    0.9650     0.025  0.004709
    0.9700     0.077  0.005825
    0.9750     0.326  0.009378
    0.9800     0.863  0.017032
    0.9850     1.426  0.036670
    0.9900     1.180  0.063615
    0.9950     0.630  0.082870
    1.0000     0.380  0.088140
    1.0050     0.213  0.090241
    1.0100     0.077  0.089398
    1.0150     0.018  0.088454
    1.0200     0.014  0.098187
    1.0250     0.303  0.077123
    1.0300     0.546  0.053122
    1.0350     0.284  0.032582
    1.0400     0.105  0.013499
    1.0450     0.040  0.006546
    1.0500     0.029  0.004948
    1.0550     0.041  0.005346
    1.0600     0.134  0.007109
    1.0650     0.471  0.009704
    1.0700     1.025  0.018994
    1.0750     1.288  0.044224
    1.0800     0.898  0.074353
    1.0850     0.533  0.089925
    1.0900     0.355  0.094180
    1.0950     0.209  0.095040
    1.1000     0.076  0.091936
    1.1050     0.019  0.095688
    1.1100     0.016  0.110756
    1.1150     0.348  0.084407
    1.1200     0.581  0.058258
    1.1250     0.271  0.032950
    1.1300     0.103  0.011922
    1.1350     0.041  0.005506
    1.1400     0.036  0.005266
    1.1450     0.070  0.005905
    1.1500     0.233  0.006466
    1.1550     0.674  0.010359
    1.1600     1.100  0.021759
    1.1650     1.091  0.050155
    1.1700     0.766  0.091193
    1.1750     0.380  0.109606
    1.1800     0.201  0.106076
    1.1850     0.081  0.099502
    1.1900     0.022  0.096554
    1.1950     0.007  0.102488
    1.2000     0.137  0.096880
    1.2050     0.427  0.063428
    1.2100     0.308  0.046576
    1.2150     0.071  0.020199
    1.2200     0.040  0.005346
    1.2250     0.044  0.004471
    1.2300     0.069  0.004153
    1.2350     0.178  0.004233
    1.2400     0.488  0.006546
    1.2450     0.931  0.012419
    1.2500     1.114  0.025892
    1.2550     0.921  0.059538
    1.2600     0.640  0.106076
    1.2650     0.288  0.123082
    1.2700     0.115  0.110180
    1.2750     0.050  0.098624
    1.2800     0.020  0.094932
    1.2850     0.015  0.096662
    1.2900     0.201  0.075832
    1.2950     0.505  0.046971
    1.3000     0.644  0.028938
    1.3050     0.763  0.009623
    1.3100     0.855  0.008646
    1.3150     0.781  0.009052
    1.3200     0.796  0.010195
    1.3250     0.957  0.015341
    1.3300     1.191  0.025625
    1.3350     1.161  0.043350
    1.3400     0.731  0.058440
    1.3450     0.499  0.064834
    1.3500     0.384  0.068439
    1.3550     0.306  0.074944
    1.3600     0.255  0.081343
    1.3650     0.218  0.093536
    1.3700     0.193  0.111217
    1.3750     0.171  0.127874
    1.3800     0.203  0.120720
    1.3850     0.433  0.065682
    1.3900     0.634  0.044419
    1.3950     0.781  0.021151
    1.4000     0.947  0.008808
    1.4050     1.165  0.008240
    1.4100     1.247  0.010605
    1.4150     1.331  0.013582
    1.4200     1.508  0.019682
    1.4250     1.558  0.032306
    1.4300     1.294  0.046084
    1.4350     0.782  0.057257
    1.4400     0.484  0.069109
    1.4450     0.313  0.078821
    1.4500     0.191  0.080533
    1.4550     0.108  0.079726
    1.4600     0.060  0.088349
    1.4650     0.046  0.095796
    1.4700     0.225  0.067961
    1.4750     0.372  0.048457
    1.4800     0.401  0.030115
    1.4850     0.271  0.010523
    1.4900     0.321  0.005027
    1.4950     0.418  0.005905
    1.5000     0.517  0.006466
    1.5050     0.752  0.008727
    1.5100     1.163  0.015847
    1.5150     1.463  0.030115
    1.5200     1.071  0.046182
    1.5250     0.573  0.064364
    1.5300     0.343  0.074944
    1.5350     0.184  0.079022
    1.5400     0.080  0.079524
    1.5450     0.028  0.083586
    1.5500     0.012  0.097969
    1.5550     0.097  0.098734
    1.5600     0.313  0.074648
    1.5650     0.358  0.060366
    1.5700     0.126  0.025359
    1.5750     0.063  0.012171
    1.5800     0.053  0.012253
    1.5850     0.070  0.013499
    1.5900     0.173  0.019252
    1.5950     0.489  0.032031
    1.6000     1.001  0.057620
    1.6050     1.286  0.106869
    1.6100     1.028  0.185642
    1.6150     0.522  0.205886
    1.6200     0.264  0.155764
    1.6250     0.116  0.130527
    1.6300     0.038  0.114916
    1.6350     0.011  0.105399
    1.6400     0.008  0.108005
    1.6450     0.198  0.090030
    1.6500     0.386  0.061474
    1.6550     0.259  0.038177
    1.6600     0.068  0.012253
    1.6650     0.049  0.005426
    1.6700     0.048  0.004233
    1.6750     0.094  0.004788
    1.6800     0.305  0.006466
    1.6850     0.766  0.008646
    1.6900     1.081  0.017627
    1.6950     0.998  0.043641
    1.7000     0.704  0.080836
    1.7050     0.321  0.099282
    1.7100     0.139  0.098734
    1.7150     0.053  0.095364
    1.7200     0.017  0.092362
    1.7250     0.007  0.096337
    1.7300     0.026  0.104836
    1.7350     0.316  0.078120
    1.7400     0.423  0.054282
    1.7450     0.151  0.024299
    1.7500     0.060  0.006627
    1.7550     0.060  0.004312
    1.7600     0.080  0.005027
    1.7650     0.200  0.005506
    1.7700     0.578  0.006306
    1.7750     1.004  0.010851
    1.7800     1.052  0.024828
    1.7850     0.866  0.055539
    1.7900     0.523  0.088140
    1.7950     0.235  0.100272
    1.8000     0.102  0.096229
    1.8050     0.035  0.092895
    1.8100     0.011  0.092788
    1.8150     0.006  0.099612
    1.8200     0.104  0.096771
    1.8250     0.431  0.065682
    1.8300     0.419  0.048060
    1.8350     0.149  0.016862
    1.8400     0.079  0.006386
    1.8450     0.051  0.005905
    1.8500     0.072  0.004948
    1.8550     0.211  0.005107
    1.8600     0.618  0.008159
    1.8650     0.997  0.014251
    1.8700     0.983  0.032306
    1.8750     0.759  0.069397
    1.8800     0.429  0.095256
    1.8850     0.269  0.098406
    1.8900     0.163  0.099063
    1.8950     0.067  0.101156
    1.9000     0.018  0.102488
    1.9050     0.008  0.115229
    1.9100     0.205  0.102376
    1.9150     0.512  0.069589
    1.9200     0.352  0.044517
    1.9250     0.154  0.014669
    1.9300     0.108  0.007190
    1.9350     0.099  0.006065
    1.9400     0.181  0.005506
    1.9450     0.440  0.007674
    1.9500     0.823  0.010441
    1.9550     1.017  0.019252
    1.9600     0.923  0.045495
    1.9650     0.636  0.081546
    1.9700     0.385  0.096988
    1.9750     0.274  0.098624
    1.9800     0.178  0.098843
    1.9850     0.071  0.096662
    1.9900     0.018  0.098953
    1.9950     0.008  0.117116
    2.0000     0.285  0.096012
    2.0050     0.563  0.064458
    2.0100     0.387  0.039506
    2.0150     0.256  0.013582
    2.0200     0.234  0.006546
    2.0250     0.269  0.006546
    2.0300     0.434  0.007755
    2.0350     0.725  0.009297
    2.0400     0.982  0.014000
    2.0450     1.008  0.030024
    2.0500     0.831  0.060919
    2.0550     0.495  0.083176
    2.0600     0.359  0.091936
    2.0650     0.284  0.096337
    2.0700     0.212  0.094717
    2.0750     0.110  0.094717
    2.0800     0.032  0.102265
    2.0850     0.014  0.125575
    2.0900     0.335  0.100935
    2.0950     0.654  0.066819
    2.1000     0.500  0.037234
    2.1050     0.406  0.012668
    2.1100     0.399  0.007755
    2.1150     0.504  0.008565
    2.1200     0.722  0.008808
    2.1250     0.956  0.011675
    2.1300     1.061  0.020544
    2.1350     0.973  0.039601
    2.1400     0.655  0.059722
    2.1450     0.458  0.075536
    2.1500     0.369  0.085335
    2.1550     0.298  0.089819
    2.1600     0.215  0.089819
    2.1650     0.099  0.090241
    2.1700     0.030  0.101710
    2.1750     0.029  0.120614
    2.1800     0.438  0.089819
    2.1850     0.728  0.059538
    2.1900     0.583  0.029842
    2.1950     0.490  0.013083
    2.2000     0.467  0.008890
    2.2050     0.585  0.008321
    2.2100     0.801  0.010031
    2.2150     1.032  0.014669
    2.2200     1.163  0.024828
    2.2250     1.039  0.044615
    2.2300     0.673  0.062961
    2.2350     0.469  0.076130
    2.2400     0.371  0.084099
    2.2450     0.290  0.089819
    2.2500     0.192  0.089293
    2.2550     0.082  0.089293
    2.2600     0.032  0.106076
    2.2650     0.127  0.105061
    2.2700     0.554  0.070457
    2.2750     0.678  0.045397
    2.2800     0.522  0.018224
    2.2850     0.386  0.008402
    2.2900     0.276  0.006868
    2.2950     0.292  0.007916
    2.3000     0.414  0.009704
    2.3050     0.634  0.013249
    2.3100     0.961  0.024652
    2.3150     1.250  0.046478
    2.3200     1.069  0.063054
    2.3250     0.600  0.076924
    2.3300     0.392  0.083996
    2.3350     0.298  0.087618
    2.3400     0.219  0.089293
    2.3450     0.134  0.093858
    2.3500     0.096  0.108348
    2.3550     0.457  0.080129
    2.3600     0.701  0.052145
    2.3650     0.444  0.024652
    2.3700     0.185  0.006788
    2.3750     0.059  0.004868
    2.3800     0.027  0.005426
    2.3850     0.015  0.005426
    2.3900     0.010  0.005426
    2.3950     0.029  0.008159
    2.4000     0.162  0.015425
    2.4050     0.631  0.031207
    2.4100     1.243  0.055899
    2.4150     0.811  0.073666
    2.4200     0.417  0.081343
    2.4250     0.258  0.082563
    2.4300     0.120  0.086162
    2.4350     0.049  0.094394
    2.4400     0.317  0.074648
    2.4450     0.574  0.047663
    2.4500     0.213  0.029389
    2.4550     0.034  0.007271
    2.4600     0.023  0.003995
    2.4650     0.023  0.003757
    2.4700     0.023  0.003678
    2.4750     0.026  0.004074
    2.4800     0.071  0.006466
    2.4850     0.292  0.011016
    2.4900     0.817  0.024210
    2.4950     1.247  0.055359
    2.5000     0.886  0.088559
    2.5050     0.403  0.101266
    2.5100     0.245  0.096229
    2.5150     0.142  0.093002
    2.5200     0.070  0.095904
    2.5250     0.047  0.105625
    2.5300     0.314  0.083381
    2.5350     0.573  0.052234
    2.5400     0.389  0.025625
    2.5450     0.155  0.006788
    2.5500     0.103  0.005586
    2.5550     0.106  0.004868
    2.5600     0.168  0.005665
    2.5650     0.368  0.008321
    2.5700     0.760  0.012336
    2.5750     1.067  0.024563
    2.5800     0.998  0.055809
    2.5850     0.659  0.092149
    2.5900     0.337  0.108919
    2.5950     0.177  0.105512
    2.6000     0.078  0.100493
    2.6050     0.029  0.095796
    2.6100     0.015  0.099392
    2.6150     0.065  0.097423
    2.6200     0.339  0.063615
    2.6250     0.524  0.047070
    2.6300     0.396  0.017627
    2.6350     0.268  0.007190
    2.6400     0.211  0.005745
    2.6450     0.247  0.006788
    2.6500     0.432  0.008484
    2.6550     0.767  0.010523
    2.6600     1.037  0.018053
    2.6650     1.000  0.039887
    2.6700     0.756  0.074747
    2.6750     0.415  0.098624
    2.6800     0.204  0.105287
    2.6850     0.088  0.104724
    2.6900     0.036  0.100493
    2.6950     0.018  0.099172
    2.7000     0.015  0.106529
    2.7050     0.117  0.099172
    2.7100     0.387  0.060550
    2.7150     0.620  0.043447
    2.7200     0.644  0.013666
    2.7250     0.481  0.007351
    2.7300     0.399  0.007432
    2.7350     0.543  0.008402
    2.7400     0.858  0.009134
    2.7450     1.115  0.013749
    2.7500     1.080  0.026694
    2.7550     0.813  0.049354
    2.7600     0.499  0.069878
    2.7650     0.309  0.080129
    2.7700     0.175  0.084613
    2.7750     0.092  0.085955
    2.7800     0.050  0.088873
    2.7850     0.034  0.097859
    2.7900     0.037  0.111706
    2.7950     0.144  0.107209
    2.8000     0.426  0.063708
    2.8050     0.718  0.044517
    2.8100     0.815  0.017542
    2.8150     0.676  0.009297
    2.8200     0.623  0.008159
    2.8250     0.857  0.007674
    2.8300     1.213  0.009541
    2.8350     1.295  0.014251
    2.8400     0.983  0.023858
    2.8450     0.634  0.039696
    2.8500     0.418  0.056441
    2.8550     0.251  0.061659
    2.8600     0.143  0.061474
    2.8650     0.084  0.065116
    2.8700     0.053  0.072786
    2.8750     0.045  0.087514
    2.8800     0.055  0.106302
    2.8850     0.192  0.101932
    2.8900     0.489  0.059722
    2.8950     0.806  0.042672
    2.9000     0.714  0.021151
    2.9050     0.465  0.009950
    2.9100     0.385  0.007513
    2.9150     0.590  0.007674
    2.9200     1.079  0.008890
    2.9250     1.407  0.011757
    2.9300     1.041  0.019682
    2.9350     0.686  0.037894
    2.9400     0.471  0.051463
    2.9450     0.279  0.058166
    2.9500     0.154  0.058531
    2.9550     0.082  0.058623
    2.9600     0.048  0.064646
    2.9650     0.036  0.081647
    2.9700     0.039  0.103156
    2.9750     0.225  0.090452
    2.9800     0.473  0.061567
    2.9850     0.636  0.040939
    2.9900     0.505  0.020112
    2.9950     0.354  0.010769
    3.0000     0.303  0.008484
    3.0050     0.458  0.007432
    3.0100     0.891  0.008402
    3.0150     1.367  0.013582
    3.0200     1.177  0.022981
    3.0250     0.731  0.039791
    3.0300     0.459  0.056080
    3.0350     0.239  0.063989
    3.0400     0.104  0.062681
    3.0450     0.043  0.059538
    3.0500     0.022  0.064364
    3.0550     0.015  0.078420
    3.0600     0.037  0.092149
    3.0650     0.296  0.064928
    3.0700     0.539  0.056441
    3.0750     0.549  0.030296
    3.0800     0.431  0.016947
    3.0850     0.320  0.009786
    3.0900     0.365  0.007755
    3.0950     0.602  0.007593
    3.1000     1.042  0.010687
    3.1050     1.381  0.017286
    3.1100     1.147  0.029933
    3.1150     0.631  0.048557
    3.1200     0.334  0.064364
    3.1250     0.146  0.069109
    3.1300     0.058  0.068726
    3.1350     0.023  0.066913
    3.1400     0.012  0.070747
    3.1450     0.013  0.083893
    3.1500     0.148  0.080836
    3.1550     0.405  0.051968
    3.1600     0.588  0.043544
    3.1650     0.508  0.020544
    3.1700     0.351  0.011098
    3.1750     0.268  0.007029
    3.1800     0.395  0.006868
    3.1850     0.752  0.008484
    3.1900     1.238  0.011427
    3.1950     1.397  0.019596
    3.2000     0.962  0.034987
    3.2050     0.399  0.053300
    3.2100     0.160  0.065588
    3.2150     0.063  0.069301
    3.2200     0.025  0.069013
    3.2250     0.012  0.065777
    3.2300     0.010  0.072396
    3.2350     0.018  0.084201
    3.2400     0.217  0.067294
    3.2450     0.438  0.048557
    3.2500     0.590  0.034801
    3.2550     0.516  0.015762
    3.2600     0.420  0.007190
    3.2650     0.463  0.006546
    3.2700     0.744  0.007432
    3.2750     1.139  0.008159
    3.2800     1.254  0.013083
    3.2850     0.994  0.025625
    3.2900     0.566  0.043738
    3.2950     0.168  0.056803
    3.3000     0.040  0.067389
    3.3050     0.016  0.067199
    3.3100     0.010  0.066250
    3.3150     0.009  0.068247
    3.3200     0.011  0.077721
    3.3250     0.063  0.093108
    3.3300     0.328  0.087201
    3.3350     0.613  0.054640
    3.3400     0.699  0.025892
    3.3450     0.495  0.009704
    3.3500     0.415  0.007674
    3.3550     0.586  0.007190
    3.3600     0.960  0.006868
    3.3650     1.157  0.009297
    3.3700     0.908  0.016269
    3.3750     0.629  0.030569
    3.3800     0.371  0.050657
    3.3850     0.111  0.061938
    3.3900     0.020  0.066724
    3.3950     0.008  0.065682
    3.4000     0.006  0.068439
    3.4050     0.006  0.074648
    3.4100     0.019  0.080937
    3.4150     0.192  0.067104
    3.4200     0.480  0.045593
    3.4250     0.801  0.034152
    3.4300     0.730  0.011510
    3.4350     0.578  0.008727
    3.4400     0.676  0.007109
    3.4450     0.943  0.006466
    3.4500     1.015  0.007916
    3.4550     0.771  0.012005
    3.4600     0.564  0.021846
    3.4650     0.440  0.042285
    3.4700     0.297  0.065305
    3.4750     0.112  0.072494
    3.4800     0.021  0.073568
    3.4850     0.007  0.073470
    3.4900     0.005  0.076427
    3.4950     0.011  0.080735
    3.5000     0.107  0.074353
    3.5050     0.386  0.048856
    3.5100     0.735  0.038366
    3.5150     0.812  0.014921
    3.5200     0.629  0.009297
    3.5250     0.651  0.007029
    3.5300     0.846  0.005985
    3.5350     0.928  0.006788
    3.5400     0.778  0.008727
    3.5450     0.603  0.014334
    3.5500     0.493  0.029118
    3.5550     0.387  0.053924
    3.5600     0.233  0.073177
    3.5650     0.068  0.078020
    3.5700     0.012  0.077421
    3.5750     0.006  0.078220
    3.5800     0.008  0.082563
    3.5850     0.044  0.082972
    3.5900     0.258  0.059998
    3.5950     0.568  0.042575
    3.6000     0.836  0.026337
    3.6050     0.794  0.011675
    3.6100     0.758  0.007513
    3.6150     0.842  0.006226
    3.6200     0.856  0.006546
    3.6250     0.752  0.007351
    3.6300     0.641  0.010687
    3.6350     0.553  0.020890
    3.6400     0.450  0.038272
    3.6450     0.317  0.058531
    3.6500     0.137  0.068439
    3.6550     0.029  0.073862
    3.6600     0.007  0.074451
    3.6650     0.007  0.079223
    3.6700     0.015  0.083176
    3.6750     0.120  0.074451
    3.6800     0.369  0.048457
    3.6850     0.698  0.038840
    3.6900     0.824  0.017882
    3.6950     0.721  0.008890
    3.7000     0.717  0.006707
    3.7050     0.763  0.006226
    3.7100     0.764  0.005506
    3.7150     0.711  0.007351
    3.7200     0.649  0.013333
    3.7250     0.565  0.024122
    3.7300     0.433  0.041515
    3.7350     0.229  0.056170
    3.7400     0.061  0.066060
    3.7450     0.012  0.068917
    3.7500     0.008  0.074157
    3.7550     0.009  0.079927
    3.7600     0.037  0.078520
    3.7650     0.196  0.059172
    3.7700     0.421  0.043059
    3.7750     0.649  0.030569
    3.7800     0.729  0.012088
    3.7850     0.716  0.007916
    3.7900     0.750  0.006466
    3.7950     0.804  0.005346
    3.8000     0.790  0.006627
    3.8050     0.705  0.010605
    3.8100     0.618  0.018395
    3.8150     0.497  0.033596
    3.8200     0.292  0.050155
    3.8250     0.096  0.060642
    3.8300     0.019  0.065871
    3.8350     0.007  0.070457
    3.8400     0.006  0.076130
    3.8450     0.014  0.076725
    3.8500     0.135  0.065116
    3.8550     0.340  0.044030
    3.8600     0.575  0.034523
    3.8650     0.599  0.011922
    3.8700     0.472  0.007432
    3.8750     0.432  0.005905
    3.8800     0.631  0.005027
    3.8850     1.018  0.005985
    3.8900     1.121  0.007916
    3.8950     0.849  0.012253
    3.9000     0.604  0.024299
    3.9050     0.322  0.039506
    3.9100     0.099  0.054014
    3.9150     0.019  0.059998
    3.9200     0.007  0.064458
    3.9250     0.005  0.070457
    3.9300     0.005  0.075931
    3.9350     0.056  0.096012
    3.9400     0.274  0.059814
    3.9450     0.557  0.042382
    3.9500     0.431  0.018737
    3.9550     0.160  0.008078
    3.9600     0.077  0.006306
    3.9650     0.100  0.004868
    3.9700     0.335  0.005586
    3.9750     0.950  0.006145
    3.9800     1.102  0.007593
    3.9850     0.754  0.014753
    3.9900     0.518  0.030843
    3.9950     0.285  0.046872
    4.0000     0.099  0.061289
    4.0050     0.020  0.065211
    4.0100     0.006  0.066629
    4.0150     0.004  0.070843
    4.0200     0.012  0.074747
    4.0250     0.182  0.060735
    4.0300     0.458  0.041707
    4.0350     0.470  0.027319
    4.0400     0.133  0.009052
    4.0450     0.036  0.006546
    4.0500     0.027  0.005426
    4.0550     0.056  0.004788
    4.0600     0.350  0.004788
    4.0650     0.991  0.005985
    4.0700     0.998  0.010769
    4.0750     0.628  0.022981
    4.0800     0.423  0.047267
    4.0850     0.226  0.069397
    4.0900     0.063  0.080533
    4.0950     0.011  0.076725
    4.1000     0.004  0.076526
    4.1050     0.004  0.081444
    4.1100     0.051  0.079726
    4.1150     0.313  0.054910
    4.1200     0.518  0.041611
    4.1250     0.173  0.016016
    4.1300     0.039  0.007351
    4.1350     0.026  0.006466
    4.1400     0.031  0.005187
    4.1450     0.121  0.004074
    4.1500     0.586  0.005187
    4.1550     1.066  0.008402
    4.1600     0.835  0.014837
    4.1650     0.543  0.035453
    4.1700     0.357  0.072007
    4.1750     0.152  0.094394
    4.1800     0.028  0.094394
    4.1850     0.007  0.088768
    4.1900     0.004  0.087097
    4.1950     0.005  0.090136
    4.2000     0.173  0.079424
    4.2050     0.480  0.052589
    4.2100     0.323  0.032398
    4.2150     0.068  0.009378
    4.2200     0.027  0.007513
    4.2250     0.025  0.006065
    4.2300     0.056  0.004074
    4.2350     0.291  0.005027
    4.2400     0.868  0.007593
    4.2450     1.118  0.011510
    4.2500     0.869  0.025005
    4.2550     0.559  0.055899
    4.2600     0.238  0.083996
    4.2650     0.053  0.095364
    4.2700     0.011  0.093643
    4.2750     0.004  0.091299
    4.2800     0.003  0.089188
    4.2850     0.012  0.096120
    4.2900     0.278  0.078921
    4.2950     0.506  0.054193
    4.3000     0.217  0.025182
    4.3050     0.089  0.009460
    4.3100     0.053  0.006948
    4.3150     0.078  0.005346
    4.3200     0.242  0.005506
    4.3250     0.678  0.007351
    4.3300     1.081  0.009541
    4.3350     1.052  0.018480
    4.3400     0.851  0.041803
    4.3450     0.490  0.069974
    4.3500     0.178  0.087618
    4.3550     0.051  0.092255
    4.3600     0.015  0.092575
    4.3650     0.006  0.089083
    4.3700     0.006  0.092681
    4.3750     0.060  0.098078
    4.3800     0.316  0.072007
    4.3850     0.428  0.052677
    4.3900     0.234  0.022194
    4.3950     0.230  0.008078
    4.4000     0.331  0.005825
    4.4050     0.493  0.007109
    4.4100     0.790  0.008078
    4.4150     1.083  0.010031
    4.4200     1.106  0.017371
    4.4250     0.933  0.036201
    4.4300     0.663  0.063428
    4.4350     0.372  0.083586
    4.4400     0.210  0.092468
    4.4450     0.098  0.093215
    4.4500     0.039  0.089188
    4.4550     0.016  0.088978
    4.4600     0.009  0.100382
    4.4650     0.092  0.100493
    4.4700     0.307  0.067579
    4.4750     0.460  0.050456
    4.4800     0.445  0.019768
    4.4850     0.536  0.007351
    4.4900     0.735  0.007916
    4.4950     0.870  0.008484
    4.5000     1.049  0.010277
    4.5050     1.172  0.016354
    4.5100     1.054  0.029118
    4.5150     0.723  0.046675
    4.5200     0.465  0.064928
    4.5250     0.341  0.075240
    4.5300     0.253  0.078420
    4.5350     0.161  0.080937
    4.5400     0.081  0.084510
    4.5450     0.037  0.088978
    4.5500     0.019  0.098406
    4.5550     0.127  0.091830
    4.5600     0.295  0.056894
    4.5650     0.403  0.045005
    4.5700     0.336  0.018309
    4.5750     0.333  0.006788
    4.5800     0.543  0.005985
    4.5850     0.789  0.006868
    4.5900     1.004  0.010277
    4.5950     1.142  0.015341
    4.6000     1.109  0.028217
    4.6050     0.862  0.052766
    4.6100     0.489  0.071230
    4.6150     0.310  0.079826
    4.6200     0.184  0.080432
    4.6250     0.094  0.080129
    4.6300     0.041  0.081343
    4.6350     0.019  0.087097
    4.6400     0.020  0.095040
    4.6450     0.178  0.075734
    4.6500     0.316  0.050858
    4.6550     0.411  0.035827
    4.6600     0.336  0.012005
    4.6650     0.347  0.005506
    4.6700     0.456  0.005825
    4.6750     0.617  0.007755
    4.6800     0.871  0.009460
    4.6850     1.093  0.014334
    4.6900     1.080  0.029661
    4.6950     0.876  0.058805
    4.7000     0.479  0.081749
    4.7050     0.234  0.090664
    4.7100     0.114  0.087514
    4.7150     0.050  0.084716
    4.7200     0.021  0.085438
    4.7250     0.011  0.092042
    4.7300     0.040  0.093536
    4.7350     0.220  0.063802
    4.7400     0.351  0.048856
    4.7450     0.417  0.025448
    4.7500     0.364  0.007674
    4.7550     0.389  0.006145
    4.7600     0.404  0.007029
    4.7650     0.549  0.007271
    4.7700     0.852  0.009623
    4.7750     1.103  0.016947
    4.7800     1.052  0.034894
    4.7850     0.776  0.066534
    4.7900     0.413  0.087201
    4.7950     0.225  0.090981
    4.8000     0.111  0.088454
    4.8050     0.050  0.088140
    4.8100     0.022  0.090875
    4.8150     0.012  0.098624
    4.8200     0.066  0.098187
    4.8250     0.232  0.063989
    4.8300     0.358  0.048856
    4.8350     0.369  0.022194
    4.8400     0.331  0.007755
    4.8450     0.412  0.006386
    4.8500     0.502  0.006226
    4.8550     0.730  0.008078
    4.8600     1.035  0.011510
    4.8650     1.172  0.018823
    4.8700     1.045  0.039125
    4.8750     0.678  0.063895
    4.8800     0.376  0.079625
    4.8850     0.208  0.082665
    4.8900     0.098  0.084819
    4.8950     0.041  0.085851
    4.9000     0.018  0.088768
    4.9050     0.014  0.098296
    4.9100     0.102  0.094072
    4.9150     0.270  0.057802
    4.9200     0.406  0.045397
    4.9250     0.407  0.018737
    4.9300     0.393  0.007190
    4.9350     0.407  0.006145
    4.9400     0.500  0.007513
    4.9450     0.781  0.009215
    4.9500     1.102  0.012336
    4.9550     1.149  0.023946
    4.9600     0.876  0.046379
    4.9650     0.536  0.064364
    4.9700     0.351  0.072396
    4.9750     0.204  0.078320
    4.9800     0.096  0.081444
    4.9850     0.039  0.084819
    4.9900     0.017  0.092468
    4.9950     0.013  0.102154
    5.0000     0.150  0.088873
    5.0050     0.309  0.055990
    5.0100     0.424  0.041996
    5.0150     0.335  0.015341
    5.0200     0.326  0.006065
    5.0250     0.323  0.006707
    5.0300     0.450  0.007351
    5.0350     0.792  0.008402
    5.0400     1.137  0.013249
    5.0450     1.147  0.026159
    5.0500     0.802  0.045789
    5.0550     0.512  0.063147
    5.0600     0.348  0.069589
    5.0650     0.206  0.074747
    5.0700     0.099  0.078621
    5.0750     0.044  0.084819
    5.0800     0.021  0.093965
    5.0850     0.018  0.103156
    5.0900     0.170  0.087827
    5.0950     0.334  0.056441
    5.1000     0.442  0.039982
    5.1050     0.348  0.015510
    5.1100     0.333  0.007190
    5.1150     0.319  0.006466
    5.1200     0.458  0.006948
    5.1250     0.820  0.009378
    5.1300     1.138  0.014334
    5.1350     1.090  0.027230
    5.1400     0.733  0.048259
    5.1450     0.467  0.064834
    5.1500     0.307  0.067389
    5.1550     0.171  0.071618
    5.1600     0.082  0.076427
    5.1650     0.036  0.082563
    5.1700     0.020  0.092255
    5.1750     0.023  0.102710
    5.1800     0.186  0.083483
    5.1850     0.355  0.054461
    5.1900     0.508  0.037799
    5.1950     0.433  0.015594
    5.2000     0.316  0.007351
    5.2050     0.258  0.007029
    5.2100     0.436  0.008321
    5.2150     0.838  0.010359
    5.2200     1.093  0.017286
    5.2250     0.971  0.036576
    5.2300     0.626  0.057529
    5.2350     0.409  0.068726
    5.2400     0.275  0.070360
    5.2450     0.154  0.073960
    5.2500     0.073  0.077820
    5.2550     0.033  0.085231
    5.2600     0.019  0.097750
    5.2650     0.031  0.104836
    5.2700     0.231  0.076229
    5.2750     0.425  0.053924
    5.2800     0.490  0.031665
    5.2850     0.290  0.011675
    5.2900     0.121  0.007109
    5.2950     0.094  0.007109
    5.3000     0.220  0.006627
    5.3050     0.657  0.009134
    5.3100     1.055  0.017371
    5.3150     0.989  0.036764
    5.3200     0.636  0.061752
    5.3250     0.404  0.074451
    5.3300     0.271  0.074550
    5.3350     0.159  0.076229
    5.3400     0.081  0.080836
    5.3450     0.041  0.088454
    5.3500     0.027  0.099282
    5.3550     0.041  0.106642
    5.3600     0.236  0.076725
    5.3650     0.444  0.052589
    5.3700     0.538  0.029842
    5.3750     0.294  0.011675
    5.3800     0.096  0.007513
    5.3850     0.066  0.005825
    5.3900     0.166  0.006386
    5.3950     0.585  0.009704
    5.4000     1.030  0.016608
    5.4050     0.964  0.037422
    5.4100     0.658  0.070457
    5.4150     0.371  0.085438
    5.4200     0.233  0.083074
    5.4250     0.130  0.084716
    5.4300     0.068  0.086577
    5.4350     0.038  0.088768
    5.4400     0.031  0.098187
    5.4450     0.049  0.106642
    5.4500     0.255  0.073862
    5.4550     0.543  0.048955
    5.4600     0.609  0.026961
    5.4650     0.198  0.009950
    5.4700     0.035  0.006868
    5.4750     0.019  0.005107
    5.4800     0.043  0.005745
    5.4850     0.347  0.007351
    5.4900     0.927  0.014753
    5.4950     0.980  0.036952
    5.5000     0.692  0.073960
    5.5050     0.372  0.093643
    5.5100     0.209  0.095472
    5.5150     0.104  0.096012
    5.5200     0.053  0.094609
    5.5250     0.032  0.094287
    5.5300     0.029  0.101710
    5.5350     0.057  0.109262
    5.5400     0.324  0.072981
    5.5450     0.785  0.048060
    5.5500     0.436  0.022543
    5.5550     0.037  0.009134
    5.5600     0.016  0.005586
    5.5650     0.006  0.004074
    5.5700     0.008  0.003757
    5.5750     0.190  0.006546
    5.5800     0.838  0.014167
    5.5850     0.970  0.036107
    5.5900     0.687  0.079424
    5.5950     0.360  0.105287
    5.6000     0.176  0.110410
    5.6050     0.077  0.110180
    5.6100     0.036  0.106076
    5.6150     0.024  0.101156
    5.6200     0.038  0.103491
    5.6250     0.157  0.107892
    5.6300     0.991  0.065966
    5.6350     0.246  0.039315
    5.6400     0.023  0.014837
    5.6450     0.009  0.006546
    5.6500     0.003  0.003284
    5.6550     0.001  0.002654
    5.6600     0.013  0.004391
    5.6650     0.401  0.008159
    5.6700     1.019  0.020026
    5.6750     0.892  0.056351
    5.6800     0.554  0.087305
    5.6850     0.372  0.098515
    5.6900     0.240  0.106302
    5.6950     0.135  0.108690
    5.7000     0.079  0.105287
    5.7050     0.070  0.108119
    5.7100     0.122  0.121255
    5.7150     0.616  0.115125
    5.7200     0.649  0.061104
    5.7250     0.019  0.035267
    5.7300     0.008  0.013666
    5.7350     0.003  0.006546
    5.7400     0.000  0.005346
    5.7450     0.050  0.007351
    5.7500     0.659  0.011675
    5.7550     1.107  0.022543
    5.7600     0.701  0.038083
    5.7650     0.596  0.049654
    5.7700     0.493  0.060090
    5.7750     0.370  0.067199
    5.7800     0.247  0.073470
    5.7850     0.152  0.080634
    5.7900     0.105  0.089398
    5.7950     0.106  0.101045
    5.8000     0.189  0.110180
    5.8050     0.907  0.076328
    5.8100     0.349  0.048856
    5.8150     0.013  0.031573
    5.8200     0.004  0.018566
    5.8250     0.001  0.009460
    5.8300     0.066  0.008321
    5.8350     0.765  0.009378
    5.8400     0.836  0.010441
    5.8450     0.654  0.020717
    5.8500     0.631  0.034523
    5.8550     0.551  0.047366
    5.8600     0.441  0.054461
    5.8650     0.318  0.058623
    5.8700     0.198  0.061659
    5.8750     0.111  0.066913
    5.8800     0.074  0.075931
    5.8850     0.085  0.088349
    5.8900     0.321  0.080533
    5.8950     1.020  0.051261
    5.9000     0.231  0.042092
    5.9050     0.025  0.024652
    5.9100     0.052  0.018651
    5.9150     0.355  0.010851
    5.9200     0.936  0.009052
    5.9250     0.931  0.009134
    5.9300     0.753  0.013666
    5.9350     0.711  0.024563
    5.9400     0.643  0.038366
    5.9450     0.531  0.053211
    5.9500     0.397  0.062681
    5.9550     0.250  0.065305
    5.9600     0.119  0.067770
    5.9650     0.054  0.073862
    5.9700     0.044  0.083381
    5.9750     0.112  0.088349
    5.9800     0.587  0.053657
    5.9850     0.982  0.044712
    5.9900     0.453  0.025537
    5.9950     0.380  0.018224
    6.0000     0.508  0.009786
    6.0050     0.695  0.008484
    6.0100     0.921  0.009786
    6.0150     1.035  0.012171
    6.0200     0.931  0.022456
    6.0250     0.766  0.036670
    6.0300     0.621  0.052766
    6.0350     0.455  0.065399
    6.0400     0.258  0.074353
    6.0450     0.106  0.077820
    6.0500     0.041  0.078721
    6.0550     0.029  0.082972
    6.0600     0.064  0.087618
    6.0650     0.418  0.054820
    6.0700     0.929  0.043350
    6.0750     0.955  0.026337
    6.0800     0.598  0.016185
    6.0850     0.437  0.009378
    6.0900     0.478  0.008159
    6.0950     0.721  0.009868
    6.1000     1.133  0.014418
    6.1050     1.371  0.021846
    6.1100     1.083  0.039030
    6.1150     0.708  0.053122
    6.1200     0.424  0.064364
    6.1250     0.187  0.073079
    6.1300     0.062  0.078721
    6.1350     0.023  0.079022
    6.1400     0.018  0.078520
    6.1450     0.066  0.073079
    6.1500     0.411  0.046773
    6.1550     0.768  0.039220
    6.1600     0.946  0.024034
    6.1650     0.522  0.012502
    6.1700     0.290  0.008078
    6.1750     0.296  0.007513
    6.1800     0.502  0.009460
    6.1850     0.946  0.013000
    6.1900     1.505  0.021498
    6.1950     1.601  0.035174
    6.2000     0.908  0.052234
    6.2050     0.309  0.060919
    6.2100     0.094  0.068630
    6.2150     0.029  0.073275
    6.2200     0.014  0.072689
    6.2250     0.015  0.071813
    6.2300     0.070  0.065588
    6.2350     0.368  0.043835
    6.2400     0.660  0.036764
    6.2450     0.919  0.023946
    6.2500     0.772  0.011427
    6.2550     0.495  0.007432
    6.2600     0.471  0.007351
    6.2650     0.679  0.008890
    6.2700     1.104  0.011675
    6.2750     1.609  0.018823
    6.2800     1.643  0.029571
    6.2850     1.002  0.043641
    6.2900     0.402  0.054640
    6.2950     0.136  0.060274
    6.3000     0.053  0.063615
    6.3050     0.035  0.063708
    6.3100     0.057  0.063334
    6.3150     0.218  0.056441
    6.3200     0.571  0.041130
    6.3250     0.870  0.033504
    6.3300     0.877  0.020977
    6.3350     0.535  0.008971
    6.3400     0.281  0.005745
    6.3450     0.255  0.005665
    6.3500     0.413  0.006546
    6.3550     0.751  0.007271
    6.3600     1.166  0.011263
    6.3650     1.384  0.019940
    6.3700     1.221  0.029661
    6.3750     0.882  0.035920
    6.3800     0.601  0.046478
    6.3850     0.414  0.051362
    6.3900     0.340  0.051463
    6.3950     0.394  0.050959
    6.4000     0.561  0.045789
    6.4050     0.725  0.035733
    6.4100     0.802  0.026426
    6.4150     0.651  0.016185
    6.4200     0.349  0.008402
    6.4250     0.168  0.005107
    6.4300     0.121  0.004550
    6.4350     0.156  0.004471
    6.4400     0.258  0.004233
    6.4450     0.397  0.006868
    6.4500     0.511  0.011757
    6.4550     0.578  0.019424
    6.4600     0.621  0.031207
    6.4650     0.654  0.042478
    6.4700     0.662  0.046773
    6.4750     0.625  0.049654
    6.4800     0.578  0.049754
    6.4850     0.596  0.044419
    6.4900     0.674  0.033689
    6.4950     0.772  0.023419
    6.5000     0.655  0.017286
    6.5050     0.401  0.008971
    6.5100     0.209  0.005187
    6.5150     0.092  0.004550
    6.5200     0.046  0.003837
    6.5250     0.036  0.003441
    6.5300     0.036  0.005266
    6.5350     0.059  0.008727
    6.5400     0.159  0.014585
    6.5450     0.469  0.026604
    6.5500     0.932  0.039791
    6.5550     1.115  0.048856
    6.5600     0.723  0.056984
    6.5650     0.443  0.059172
    6.5700     0.473  0.054910
    6.5750     0.617  0.042382
    6.5800     0.698  0.031482
    6.5850     0.608  0.022194
    6.5900     0.343  0.012171
    6.5950     0.150  0.006386
    6.6000     0.063  0.005027
    6.6050     0.038  0.004153
    6.6100     0.034  0.004153
    6.6150     0.047  0.006226
    6.6200     0.127  0.009052
    6.6250     0.398  0.014334
    6.6300     0.870  0.023682
    6.6350     1.188  0.032674
    6.6400     0.953  0.043932
    6.6450     0.453  0.050155
    6.6500     0.271  0.053211
    6.6550     0.306  0.050959
    6.6600     0.454  0.041418
    6.6650     0.601  0.033781
    6.6700     0.540  0.026159
    6.6750     0.242  0.015173
    6.6800     0.058  0.007513
    6.6850     0.026  0.005187
    6.6900     0.019  0.003362
    6.6950     0.017  0.003757
    6.7000     0.031  0.005187
    6.7050     0.200  0.006868
    6.7100     0.786  0.010851
    6.7150     1.474  0.018823
    6.7200     1.347  0.026426
    6.7250     0.634  0.037705
    6.7300     0.268  0.045888
    6.7350     0.173  0.049354
    6.7400     0.217  0.048159
    6.7450     0.365  0.041707
    6.7500     0.517  0.034708
    6.7550     0.463  0.028127
    6.7600     0.190  0.017712
    6.7650     0.034  0.008727
    6.7700     0.020  0.005586
    6.7750     0.015  0.003441
    6.7800     0.015  0.003757
    6.7850     0.022  0.004709
    6.7900     0.178  0.005107
    6.7950     0.767  0.008078
    6.8000     1.442  0.014167
    6.8050     1.220  0.021672
    6.8100     0.661  0.027678
    6.8150     0.323  0.039696
    6.8200     0.192  0.044908
    6.8250     0.192  0.046478
    6.8300     0.303  0.043447
    6.8350     0.482  0.036295
    6.8400     0.524  0.028577
    6.8450     0.261  0.020112
    6.8500     0.051  0.010769
    6.8550     0.021  0.005985
    6.8600     0.017  0.003678
    6.8650     0.017  0.003520
    6.8700     0.030  0.003757
    6.8750     0.179  0.003362
    6.8800     0.657  0.005346
    6.8850     1.132  0.009297
    6.8900     1.100  0.014921
    6.8950     0.844  0.023682
    6.9000     0.510  0.030843
    6.9050     0.281  0.041515
    6.9100     0.196  0.046182
    6.9150     0.226  0.048060
    6.9200     0.373  0.043059
    6.9250     0.570  0.033227
    6.9300     0.606  0.023946
    6.9350     0.348  0.016016
    6.9400     0.114  0.007836
    6.9450     0.050  0.004868
    6.9500     0.052  0.004153
    6.9550     0.111  0.003362
    6.9600     0.317  0.002575
    6.9650     0.632  0.003678
    6.9700     0.812  0.005665
    6.9750     0.824  0.008890
    6.9800     0.774  0.017968
    6.9850     0.544  0.031390
    6.9900     0.233  0.043447
    6.9950     0.080  0.052411
    7.0000     0.042  0.058440
    7.0050     0.063  0.061567
    7.0100     0.207  0.052500
    7.0150     0.367  0.037046
    7.0200     0.472  0.028127
    7.0250     0.275  0.014000
    7.0300     0.087  0.006226
    7.0350     0.041  0.004629
    7.0400     0.031  0.003362
    7.0450     0.025  0.002418
    7.0500     0.022  0.003599
    7.0550     0.024  0.004233
    7.0600     0.111  0.005825
    7.0650     0.546  0.012005
    7.0700     1.223  0.025714
    7.0750     1.409  0.042092
    7.0800     0.551  0.056713
    7.0850     0.069  0.062309
    7.0900     0.012  0.069397
    7.0950     0.010  0.074255
    7.1000     0.119  0.066155
    7.1050     0.314  0.042189
    7.1100     0.338  0.034059
    7.1150     0.115  0.020458
    7.1200     0.076  0.007916
    7.1250     0.101  0.005266
    7.1300     0.066  0.004391
    7.1350     0.042  0.005426
    7.1400     0.039  0.005745
    7.1450     0.026  0.006948
    7.1500     0.017  0.012253
    7.1550     0.021  0.023682
    7.1600     0.096  0.039601
    7.1650     0.461  0.060827
    7.1700     0.927  0.069974
    7.1750     0.623  0.072786
    7.1800     0.044  0.079323
    7.1850     0.011  0.088454
    7.1900     0.120  0.073470
    7.1950     0.383  0.045005
    7.2000     0.401  0.036295
    7.2050     0.200  0.018994
    7.2100     0.220  0.006145
    7.2150     0.406  0.005506
    7.2200     0.585  0.006306
    7.2250     0.763  0.006546
    7.2300     0.919  0.008890
    7.2350     0.947  0.015173
    7.2400     0.821  0.025803
    7.2450     0.731  0.039791
    7.2500     0.801  0.059722
    7.2550     0.969  0.069013
    7.2600     0.839  0.072007
    7.2650     0.127  0.076130
    7.2700     0.017  0.083996
    7.2750     0.021  0.080129
    7.2800     0.271  0.053657
    7.2850     0.454  0.034523
    7.2900     0.432  0.027857
    7.2950     0.334  0.009297
    7.3000     0.449  0.005825
    7.3050     0.681  0.006306
    7.3100     0.922  0.006707
    7.3150     1.228  0.009950
    7.3200     1.535  0.016608
    7.3250     1.667  0.028397
    7.3300     1.521  0.042768
    7.3350     1.256  0.061752
    7.3400     0.731  0.069205
    7.3450     0.202  0.072202
    7.3500     0.041  0.077123
    7.3550     0.011  0.082156
    7.3600     0.009  0.079323
    7.3650     0.132  0.062681
    7.3700     0.361  0.038083
    7.3750     0.487  0.033227
    7.3800     0.451  0.015510
    7.3850     0.529  0.007593
    7.3900     0.744  0.006707
    7.3950     0.984  0.007271
    7.4000     1.179  0.010277
    7.4050     1.326  0.016608
    7.4100     1.347  0.027588
    7.4150     1.017  0.041707
    7.4200     0.584  0.060366
    7.4250     0.241  0.067484
    7.4300     0.083  0.072689
    7.4350     0.024  0.078120
    7.4400     0.009  0.078921
    7.4450     0.007  0.077023
    7.4500     0.053  0.069109
    7.4550     0.269  0.044810
    7.4600     0.438  0.037422
    7.4650     0.536  0.024475
    7.4700     0.653  0.011098
    7.4750     0.870  0.007755
    7.4800     1.087  0.008159
    7.4850     1.259  0.011345
    7.4900     1.339  0.016692
    7.4950     1.193  0.026694
    7.5000     0.828  0.039601
    7.5050     0.492  0.056803
    7.5100     0.266  0.064177
    7.5150     0.121  0.071037
    7.5200     0.045  0.077222
    7.5250     0.016  0.078320
    7.5300     0.008  0.078020
    7.5350     0.019  0.075734
    7.5400     0.202  0.053478
    7.5450     0.402  0.039601
    7.5500     0.572  0.031116
    7.5550     0.679  0.015005
    7.5600     0.887  0.007836
    7.5650     1.071  0.008240
    7.5700     1.238  0.010523
    7.5750     1.308  0.014167
    7.5800     1.142  0.022631
    7.5850     0.799  0.035640
    7.5900     0.521  0.052234
    7.5950     0.336  0.060458
    7.6000     0.194  0.069109
    7.6050     0.083  0.075536
    7.6100     0.029  0.076625
    7.6150     0.012  0.078120
    7.6200     0.011  0.081546
    7.6250     0.143  0.067294
    7.6300     0.363  0.042768
    7.6350     0.604  0.037799
    7.6400     0.640  0.019338
    7.6450     0.732  0.008971
    7.6500     0.907  0.008484
    7.6550     1.127  0.009950
    7.6600     1.272  0.011840
    7.6650     1.162  0.017542
    7.6700     0.828  0.028397
    7.6750     0.577  0.044224
    7.6800     0.427  0.054103
    7.6850     0.300  0.063989
    7.6900     0.171  0.072104
    7.6950     0.068  0.073373
    7.7000     0.024  0.077023
    7.7050     0.013  0.083893
    7.7100     0.066  0.082461
    7.7150     0.290  0.049955
    7.7200     0.569  0.045397
    7.7250     0.623  0.025448
    7.7300     0.598  0.012502
    7.7350     0.755  0.008971
    7.7400     1.034  0.009786
    7.7450     1.229  0.010605
    7.7500     1.145  0.015173
    7.7550     0.830  0.022631
    7.7600     0.610  0.037799
    7.7650     0.486  0.048159
    7.7700     0.376  0.058805
    7.7750     0.252  0.066913
    7.7800     0.116  0.069493
    7.7850     0.038  0.073862
    7.7900     0.013  0.081546
    7.7950     0.029  0.085231
    7.8000     0.221  0.060090
    7.8050     0.442  0.048756
    7.8100     0.582  0.032674
    7.8150     0.626  0.015931
    7.8200     0.738  0.009541
    7.8250     0.939  0.009134
    7.8300     1.161  0.009541
    7.8350     1.266  0.013166
    7.8400     1.078  0.019596
    7.8450     0.776  0.032123
    7.8500     0.575  0.044030
    7.8550     0.445  0.054551
    7.8600     0.323  0.063334
    7.8650     0.184  0.069109
    7.8700     0.066  0.072884
    7.8750     0.018  0.078220
    7.8800     0.013  0.082972
    7.8850     0.167  0.066250
    7.8900     0.379  0.045397
    7.8950     0.568  0.037705
    7.9000     0.598  0.018651
    7.9050     0.695  0.010195
    7.9100     0.857  0.008321
    7.9150     1.083  0.008727
    7.9200     1.240  0.012419
    7.9250     1.194  0.019596
    7.9300     0.905  0.027588
    7.9350     0.623  0.043835
    7.9400     0.454  0.054193
    7.9450     0.322  0.061659
    7.9500     0.179  0.068534
    7.9550     0.057  0.073079
    7.9600     0.013  0.076725
    7.9650     0.007  0.080230
    7.9700     0.137  0.068056
    7.9750     0.353  0.043350
    7.9800     0.527  0.039791
    7.9850     0.485  0.021151
    7.9900     0.503  0.009786
    7.9950     0.604  0.006948
    8.0000     0.841  0.007593
    8.0050     1.129  0.010687
    8.0100     1.294  0.016269
    8.0150     1.164  0.027767
    8.0200     0.794  0.042189
    8.0250     0.504  0.055629
    8.0300     0.346  0.063241
    8.0350     0.214  0.070457
    8.0400     0.085  0.076130
    8.0450     0.021  0.079323
    8.0500     0.008  0.084201
    8.0550     0.071  0.079927
    8.0600     0.302  0.049155
    8.0650     0.523  0.041803
    8.0700     0.426  0.024299
    8.0750     0.330  0.008971
    8.0800     0.332  0.006145
    8.0850     0.485  0.006788
    8.0900     0.797  0.008727
    8.0950     1.165  0.012253
    8.1000     1.308  0.021933
    8.1050     1.069  0.037422
    8.1100     0.675  0.055539
    8.1150     0.404  0.064364
    8.1200     0.238  0.072591
    8.1250     0.103  0.078520
    8.1300     0.027  0.081546
    8.1350     0.009  0.085231
    8.1400     0.023  0.084201
    8.1450     0.243  0.059355
    8.1500     0.496  0.042189
    8.1550     0.481  0.030296
    8.1600     0.294  0.013000
    8.1650     0.234  0.006226
    8.1700     0.318  0.006466
    8.1750     0.572  0.007997
    8.1800     0.970  0.009950
    8.1850     1.270  0.018053
    8.1900     1.158  0.034615
    8.1950     0.776  0.051160
    8.2000     0.447  0.066534
    8.2050     0.248  0.074451
    8.2100     0.109  0.080432
    8.2150     0.030  0.083483
    8.2200     0.010  0.085955
    8.2250     0.007  0.087931
    8.2300     0.154  0.072494
    8.2350     0.452  0.045201
    8.2400     0.559  0.039030
    8.2450     0.233  0.018309
    8.2500     0.119  0.007190
    8.2550     0.160  0.007109
    8.2600     0.351  0.007674
    8.2650     0.765  0.008808
    8.2700     1.228  0.014921
    8.2750     1.260  0.027767
    8.2800     0.862  0.041803
    8.2850     0.509  0.059355
    8.2900     0.314  0.068822
    8.2950     0.175  0.076328
    8.3000     0.063  0.080735
    8.3050     0.016  0.083176
    8.3100     0.006  0.087097
    8.3150     0.059  0.081546
    8.3200     0.328  0.052944
    8.3250     0.596  0.043738
    8.3300     0.288  0.025714
    8.3350     0.092  0.010769
    8.3400     0.080  0.007109
    8.3450     0.158  0.006788
    8.3500     0.438  0.007674
    8.3550     0.956  0.012253
    8.3600     1.345  0.021933
    8.3650     1.094  0.035733
    8.3700     0.641  0.056170
    8.3750     0.367  0.065871
    8.3800     0.206  0.073373
    8.3850     0.080  0.079022
    8.3900     0.021  0.081546
    8.3950     0.007  0.082972
    8.4000     0.011  0.082258
    8.4050     0.218  0.062868
    8.4100     0.561  0.042865
    8.4150     0.515  0.033319
    8.4200     0.131  0.017286
    8.4250     0.055  0.008402
    8.4300     0.063  0.006707
    8.4350     0.165  0.006948
    8.4400     0.505  0.010195
    8.4450     1.104  0.016438
    8.4500     1.369  0.029752
    8.4550     0.937  0.048060
    8.4600     0.496  0.063241
    8.4650     0.273  0.070457
    8.4700     0.127  0.078220
    8.4750     0.038  0.082258
    8.4800     0.010  0.082360
    8.4850     0.006  0.083688
    8.4900     0.092  0.074550
    8.4950     0.401  0.045201
    8.5000     0.722  0.039982
    8.5050     0.371  0.024034
    8.5100     0.091  0.011345
    8.5150     0.050  0.006546
    8.5200     0.072  0.006788
    8.5250     0.222  0.008484
    8.5300     0.671  0.012171
    8.5350     1.308  0.022281
    8.5400     1.278  0.039601
    8.5450     0.729  0.059630
    8.5500     0.357  0.067961
    8.5550     0.168  0.075635
    8.5600     0.055  0.081039
    8.5650     0.013  0.081749
    8.5700     0.006  0.082972
    8.5750     0.022  0.078721
    8.5800     0.283  0.053567
    8.5850     0.621  0.039125
    8.5900     0.599  0.029299
    8.5950     0.159  0.015089
    8.6000     0.044  0.006707
    8.6050     0.029  0.006386
    8.6100     0.054  0.007109
    8.6150     0.227  0.008321
    8.6200     0.760  0.014921
    8.6250     1.427  0.031025
    8.6300     1.173  0.050557
    8.6350     0.572  0.070264
    8.6400     0.212  0.076427
    8.6450     0.070  0.080533
    8.6500     0.019  0.082665
    8.6550     0.007  0.083688
    8.6600     0.006  0.083074
    8.6650     0.140  0.066439
    8.6700     0.453  0.040843
    8.6750     0.697  0.036295
    8.6800     0.377  0.018908
    8.6850     0.082  0.007432
    8.6900     0.030  0.006627
    8.6950     0.025  0.006386
    8.7000     0.059  0.006386
    8.7050     0.277  0.010031
    8.7100     0.859  0.019596
    8.7150     1.440  0.038556
    8.7200     1.034  0.061474
    8.7250     0.424  0.081647
    8.7300     0.104  0.083586
    8.7350     0.023  0.083688
    8.7400     0.009  0.085645
    8.7450     0.005  0.085645
    8.7500     0.035  0.075042
    8.7550     0.322  0.049754
    8.7600     0.616  0.039030
    8.7650     0.518  0.021846
    8.7700     0.127  0.008646
    8.7750     0.027  0.006788
    8.7800     0.018  0.005506
    8.7850     0.016  0.005107
    8.7900     0.034  0.007029
    8.7950     0.206  0.012088
    8.8000     0.799  0.024122
    8.8050     1.387  0.049854
    8.8100     0.921  0.076924
    8.8150     0.377  0.093108
    8.8200     0.086  0.092895
    8.8250     0.014  0.088873
    8.8300     0.006  0.088349
    8.8350     0.019  0.082258
    8.8400     0.236  0.058714
    8.8450     0.490  0.040078
    8.8500     0.407  0.026337
    8.8550     0.056  0.008727
    8.8600     0.019  0.006466
    8.8650     0.015  0.004788
    8.8700     0.011  0.003995
    8.8750     0.011  0.005506
    8.8800     0.018  0.007836
    8.8850     0.189  0.014585
    8.8900     0.827  0.033689
    8.8950     1.174  0.065493
    8.9000     0.661  0.092468
    8.9050     0.297  0.103603
    8.9100     0.070  0.099392
    8.9150     0.013  0.089293
    8.9200     0.022  0.084099
    8.9250     0.203  0.066724
    8.9300     0.475  0.043738
    8.9350     0.326  0.029933
    8.9400     0.024  0.009704
    8.9450     0.016  0.007109
    8.9500     0.010  0.004312
    8.9550     0.007  0.004312
    8.9600     0.007  0.005426
    8.9650     0.007  0.006868
    8.9700     0.011  0.011757
    8.9750     0.172  0.026515
    8.9800     0.837  0.052855
    8.9850     1.273  0.078320
    8.9900     0.618  0.091617
    8.9950     0.141  0.090875
    9.0000     0.022  0.084304
    9.0050     0.025  0.082972
    9.0100     0.185  0.067199
    9.0150     0.334  0.044224
    9.0200     0.278  0.032123
    9.0250     0.052  0.013916
    9.0300     0.019  0.007109
    9.0350     0.018  0.004312
    9.0400     0.015  0.004550
    9.0450     0.012  0.005506
    9.0500     0.014  0.006065
    9.0550     0.023  0.009786
    9.0600     0.196  0.019596
    9.0650     0.664  0.037799
    9.0700     0.890  0.059355
    9.0750     0.492  0.073764
    9.0800     0.128  0.075635
    9.0850     0.018  0.072689
    9.0900     0.018  0.072786
    9.0950     0.113  0.061012
    9.1000     0.260  0.040460
    9.1050     0.435  0.033135
    9.1100     0.373  0.017882
    9.1150     0.343  0.008240
    9.1200     0.386  0.006145
    9.1250     0.522  0.006707
    9.1300     0.795  0.007836
    9.1350     1.202  0.009297
    9.1400     1.529  0.015089
    9.1450     1.290  0.026426
    9.1500     0.510  0.045593
    9.1550     0.132  0.057347
    9.1600     0.042  0.062961
    9.1650     0.015  0.063708
    9.1700     0.007  0.065966
    9.1750     0.005  0.071715
    9.1800     0.009  0.076526
    9.1850     0.189  0.064270
    9.1900     0.493  0.044224
    9.1950     0.633  0.035453
    9.2000     0.311  0.020285
    9.2050     0.208  0.011840
    9.2100     0.293  0.009460
    9.2150     0.583  0.009786
    9.2200     1.075  0.011345
    9.2250     1.416  0.015931
    9.2300     1.137  0.029209
    9.2350     0.808  0.046576
    9.2400     0.496  0.059447
    9.2450     0.198  0.064083
    9.2500     0.049  0.063615
    9.2550     0.012  0.060090
    9.2600     0.006  0.062123
    9.2650     0.005  0.068917
    9.2700     0.099  0.069686
    9.2750     0.369  0.045593
    9.2800     0.692  0.045888
    9.2850     0.473  0.031116
    9.2900     0.161  0.020112
    9.2950     0.101  0.014418
    9.3000     0.158  0.010113
    9.3050     0.399  0.010359
    9.3100     0.817  0.015173
    9.3150     1.147  0.025005
    9.3200     1.191  0.045397
    9.3250     0.943  0.060366
    9.3300     0.567  0.071134
    9.3350     0.189  0.073275
    9.3400     0.039  0.072299
    9.3450     0.009  0.068343
    9.3500     0.006  0.069013
    9.3550     0.038  0.071037
    9.3600     0.327  0.052855
    9.3650     0.632  0.043253
    9.3700     0.413  0.033135
    9.3750     0.061  0.021498
    9.3800     0.018  0.013333
    9.3850     0.010  0.007836
    9.3900     0.006  0.006948
    9.3950     0.005  0.009460
    9.4000     0.006  0.013916
    9.4050     0.026  0.023858
    9.4100     0.309  0.042672
    9.4150     0.861  0.056803
    9.4200     1.052  0.064740
    9.4250     0.194  0.071715
    9.4300     0.014  0.077222
    9.4350     0.006  0.074451
    9.4400     0.027  0.066534
    9.4450     0.285  0.045495
    9.4500     0.484  0.032031
    9.4550     0.448  0.027230
    9.4600     0.179  0.016269
    9.4650     0.028  0.007755
    9.4700     0.015  0.005107
    9.4750     0.010  0.005346
    9.4800     0.007  0.006546
    9.4850     0.004  0.008484
    9.4900     0.006  0.015678
    9.4950     0.009  0.032031
    9.5000     0.100  0.051564
    9.5050     0.591  0.066819
    9.5100     0.885  0.075437
    9.5150     0.348  0.073275
    9.5200     0.040  0.068726
    9.5250     0.035  0.067865
    9.5300     0.234  0.051463
    9.5350     0.405  0.034059
    9.5400     0.500  0.028217
    9.5450     0.364  0.011098
    9.5500     0.199  0.006788
    9.5550     0.060  0.004709
    9.5600     0.025  0.005107
    9.5650     0.015  0.005905
    9.5700     0.012  0.007029
    9.5750     0.014  0.012668
    9.5800     0.021  0.024563
    9.5850     0.135  0.042672
    9.5900     0.490  0.063054
    9.5950     0.742  0.075437
    9.6000     0.508  0.079323
    9.6050     0.180  0.072689
    9.6100     0.074  0.064834
    9.6150     0.207  0.052500
    9.6200     0.383  0.035174
    9.6250     0.540  0.026515
    9.6300     0.526  0.010769
    9.6350     0.493  0.007593
    9.6400     0.373  0.005586
    9.6450     0.260  0.006065
    9.6500     0.186  0.006466
    9.6550     0.123  0.007836
    9.6600     0.116  0.013166
    9.6650     0.204  0.022806
    9.6700     0.445  0.037140
    9.6750     0.769  0.052234
    9.6800     0.842  0.063334
    9.6850     0.367  0.068152
    9.6900     0.067  0.064177
    9.6950     0.040  0.062774
    9.7000     0.154  0.052234
    9.7050     0.337  0.035827
    9.7100     0.561  0.028577
    9.7150     0.629  0.011922
    9.7200     0.648  0.007674
    9.7250     0.722  0.006627
    9.7300     0.792  0.007109
    9.7350     0.894  0.007593
    9.7400     0.985  0.009460
    9.7450     1.082  0.015762
    9.7500     1.190  0.024828
    9.7550     1.257  0.036295
    9.7600     1.025  0.044517
    9.7650     0.477  0.056351
    9.7700     0.117  0.059263
    9.7750     0.041  0.060274
    9.7800     0.056  0.056713
    9.7850     0.178  0.044127
    9.7900     0.327  0.033319
    9.7950     0.524  0.028487
    9.8000     0.620  0.012751
    9.8050     0.637  0.007432
    9.8100     0.677  0.006306
    9.8150     0.748  0.006546
    9.8200     0.807  0.006466
    9.8250     0.865  0.008484
    9.8300     0.957  0.014000
    9.8350     1.077  0.021411
    9.8400     1.129  0.031573
    9.8450     0.891  0.039696
    9.8500     0.470  0.049454
    9.8550     0.159  0.054103
    9.8600     0.072  0.054820
    9.8650     0.104  0.050657
    9.8700     0.215  0.054282
    9.8750     0.353  0.088245
    9.8800     0.557  0.061104
    9.8850     0.656  0.030569
    9.8900     0.633  0.018651
    9.8950     0.559  0.013333
    9.9000     0.507  0.010113
    9.9050     0.521  0.007916
    9.9100     0.598  0.008890
    9.9150     0.711  0.012502
    9.9200     0.860  0.018823
    9.9250     0.951  0.028847
    9.9300     0.796  0.039220
    9.9350     0.485  0.049754
    9.9400     0.222  0.055179
    9.9450     0.106  0.053478
    9.9500     0.127  0.049554
    9.9550     0.231  0.039982
    9.9600     0.380  0.032950
    9.9650     0.654  0.023507
    9.9700     0.749  0.010031
    9.9750     0.639  0.007674
    9.9800     0.485  0.006868
    9.9850     0.422  0.005586
    9.9900     0.513  0.004868
    9.9950     0.718  0.006788
   10.0000     0.982  0.010687
   10.0050     1.157  0.017032
   10.0100     1.007  0.028397
   10.0150     0.667  0.038745
   10.0200     0.343  0.046478
   10.0250     0.141  0.052944
   10.0300     0.075  0.053389
   10.0350     0.109  0.050255
   10.0400     0.228  0.040460
   10.0450     0.402  0.033227
   10.0500     0.729  0.021846
   10.0550     0.729  0.009134
   10.0600     0.482  0.007997
   10.0650     0.279  0.006868
   10.0700     0.251  0.005346
   10.0750     0.377  0.004709
   10.0800     0.646  0.006466
   10.0850     0.982  0.009134
   10.0900     1.193  0.015341
   10.0950     1.021  0.026961
   10.1000     0.680  0.038556
   10.1050     0.358  0.046281
   10.1100     0.141  0.054193
   10.1150     0.058  0.054820
   10.1200     0.077  0.053835
   10.1250     0.204  0.044419
   10.1300     0.421  0.035267
   10.1350     0.886  0.021672
   10.1400     0.649  0.009460
   10.1450     0.301  0.008727
   10.1500     0.149  0.007109
   10.1550     0.135  0.005107
   10.1600     0.226  0.004948
   10.1650     0.445  0.006386
   10.1700     0.743  0.008240
   10.1750     1.021  0.013333
   10.1800     1.100  0.024563
   10.1850     0.807  0.036107
   10.1900     0.452  0.044615
   10.1950     0.178  0.054014
   10.2000     0.060  0.054640
   10.2050     0.070  0.053478
   10.2100     0.211  0.044615
   10.2150     0.462  0.035081
   10.2200     0.908  0.020544
   10.2250     0.619  0.009541
   10.2300     0.288  0.009052
   10.2350     0.173  0.006948
   10.2400     0.181  0.005107
   10.2450     0.293  0.005266
   10.2500     0.477  0.006466
   10.2550     0.682  0.007997
   10.2600     0.856  0.013416
   10.2650     0.973  0.024475
   10.2700     0.862  0.036107
   10.2750     0.525  0.046182
   10.2800     0.207  0.054730
   10.2850     0.056  0.054193
   10.2900     0.073  0.053389
   10.2950     0.248  0.043641
   10.3000     0.581  0.033689
   10.3050     0.905  0.018138
   10.3100     0.624  0.009541
   10.3150     0.387  0.008890
   10.3200     0.347  0.006788
   10.3250     0.454  0.005346
   10.3300     0.653  0.006065
   10.3350     0.843  0.007432
   10.3400     0.972  0.009541
   10.3450     1.026  0.016438
   10.3500     1.000  0.027767
   10.3550     0.770  0.037705
   10.3600     0.434  0.049155
   10.3650     0.134  0.052855
   10.3700     0.043  0.052057
   10.3750     0.104  0.050858
   10.3800     0.310  0.039030
   10.3850     0.654  0.030660
   10.3900     0.805  0.014753
   10.3950     0.671  0.008971
   10.4000     0.606  0.008321
   10.4050     0.701  0.006466
   10.4100     0.911  0.005665
   10.4150     1.122  0.006948
   10.4200     1.226  0.008402
   10.4250     1.221  0.012005
   10.4300     1.082  0.020026
   10.4350     0.813  0.030296
   10.4400     0.494  0.037705
   10.4450     0.203  0.046576
   10.4500     0.054  0.048457
   10.4550     0.048  0.049654
   10.4600     0.180  0.044224
   10.4650     0.390  0.034987
   10.4700     0.681  0.027051
   10.4750     0.712  0.011016
   10.4800     0.722  0.008240
   10.4850     0.829  0.007755
   10.4900     0.994  0.006065
   10.4950     1.104  0.006226
   10.5000     1.067  0.007997
   10.5050     0.991  0.010359
   10.5100     0.889  0.015089
   10.5150     0.664  0.024652
   10.5200     0.362  0.032490
   10.5250     0.132  0.043059
   10.5300     0.038  0.047961
   10.5350     0.023  0.050858
   10.5400     0.071  0.048557
   10.5450     0.232  0.037422
   10.5500     0.441  0.032582
   10.5550     0.661  0.022718
   10.5600     0.707  0.009297
   10.5650     0.836  0.008321
   10.5700     1.004  0.007593
   10.5750     1.110  0.006386
   10.5800     1.039  0.007674
   10.5850     0.878  0.010523
   10.5900     0.767  0.014334
   10.5950     0.564  0.022194
   10.6000     0.266  0.030387
   10.6050     0.090  0.041996
   10.6100     0.028  0.048955
   10.6150     0.017  0.052766
   10.6200     0.026  0.052322
   10.6250     0.126  0.044030
   10.6300     0.284  0.033781
   10.6350     0.506  0.031939
   10.6400     0.732  0.018053
   10.6450     0.863  0.008971
   10.6500     1.032  0.008646
   10.6550     1.183  0.008078
   10.6600     1.216  0.008321
   10.6650     1.051  0.011757
   10.6700     0.811  0.017371
   10.6750     0.500  0.025271
   10.6800     0.182  0.033411
   10.6850     0.046  0.047366
   10.6900     0.015  0.053300
   10.6950     0.008  0.055539
   10.7000     0.007  0.056351
   10.7050     0.021  0.054640
   10.7100     0.142  0.043835
   10.7150     0.305  0.034987
   10.7200     0.556  0.033781
   10.7250     0.855  0.017882
   10.7300     1.031  0.009868
   10.7350     1.186  0.009786
   10.7400     1.301  0.009623
   10.7450     1.283  0.011263
   10.7500     1.085  0.016947
   10.7550     0.682  0.024563
   10.7600     0.240  0.032306
   10.7650     0.063  0.049955
   10.7700     0.019  0.056984
   10.7750     0.008  0.057620
   10.7800     0.007  0.056713
   10.7850     0.007  0.057166
   10.7900     0.043  0.055629
   10.7950     0.192  0.039887
   10.8000     0.370  0.036670
   10.8050     0.704  0.031299
   10.8100     0.954  0.014418
   10.8150     1.105  0.009704
   10.8200     1.251  0.009868
   10.8250     1.305  0.010195
   10.8300     1.188  0.013749
   10.8350     0.896  0.021151
   10.8400     0.431  0.028397
   10.8450     0.128  0.043156
   10.8500     0.036  0.056441
   10.8550     0.012  0.058805
   10.8600     0.007  0.057347
   10.8650     0.006  0.057166
   10.8700     0.009  0.059906
   10.8750     0.077  0.055539
   10.8800     0.232  0.038840
   10.8850     0.443  0.039220
   10.8900     0.811  0.026783
   10.8950     0.995  0.011592
   10.9000     1.131  0.009786
   10.9050     1.270  0.009868
   10.9100     1.278  0.010769
   10.9150     1.097  0.015762
   10.9200     0.728  0.024387
   10.9250     0.287  0.031390
   10.9300     0.078  0.049255
   10.9350     0.022  0.057257
   10.9400     0.010  0.057711
   10.9450     0.007  0.056441
   10.9500     0.006  0.058988
   10.9550     0.014  0.061659
   10.9600     0.133  0.050356
   10.9650     0.289  0.039125
   10.9700     0.551  0.039030
   10.9750     0.808  0.018908
   10.9800     0.907  0.008971
   10.9850     1.090  0.008565
   10.9900     1.278  0.008565
   10.9950     1.266  0.009868
   11.0000     1.033  0.015510
   11.0050     0.644  0.024475
   11.0100     0.223  0.032582
   11.0150     0.050  0.049155
   11.0200     0.014  0.054640
   11.0250     0.007  0.054999
   11.0300     0.006  0.055990
   11.0350     0.006  0.061659
   11.0400     0.018  0.065399
   11.0450     0.161  0.051160
   11.0500     0.352  0.041611
   11.0550     0.683  0.035827
   11.0600     0.833  0.014837
   11.0650     0.880  0.008890
   11.0700     1.085  0.008565
   11.0750     1.290  0.008321
   11.0800     1.263  0.009786
   11.0850     0.993  0.015678
   11.0900     0.629  0.024652
   11.0950     0.249  0.032582
   11.1000     0.057  0.047663
   11.1050     0.014  0.053478
   11.1100     0.007  0.054910
   11.1150     0.005  0.057711
   11.1200     0.005  0.062868
   11.1250     0.038  0.062774
   11.1300     0.204  0.044712
   11.1350     0.396  0.041034
   11.1400     0.685  0.029209
   11.1450     0.753  0.010523
   11.1500     0.803  0.007593
   11.1550     1.028  0.007513
   11.1600     1.247  0.007029
   11.1650     1.176  0.009052
   11.1700     0.901  0.014837
   11.1750     0.612  0.024475
   11.1800     0.261  0.032766
   11.1850     0.063  0.047465
   11.1900     0.014  0.053122
   11.1950     0.007  0.055719
   11.2000     0.004  0.059355
   11.2050     0.005  0.064834
   11.2100     0.050  0.062868
   11.2150     0.228  0.044030
   11.2200     0.433  0.040364
   11.2250     0.719  0.024299
   11.2300     0.776  0.009052
   11.2350     0.782  0.008078
   11.2400     0.982  0.007109
   11.2450     1.228  0.006788
   11.2500     1.170  0.008727
   11.2550     0.870  0.014167
   11.2600     0.599  0.023595
   11.2650     0.258  0.033411
   11.2700     0.063  0.047861
   11.2750     0.013  0.054103
   11.2800     0.006  0.056622
   11.2850     0.004  0.060735
   11.2900     0.005  0.065022
   11.2950     0.071  0.061196
   11.3000     0.256  0.042092
   11.3050     0.432  0.039315
   11.3100     0.612  0.019940
   11.3150     0.633  0.007997
   11.3200     0.595  0.007190
   11.3250     0.755  0.006065
   11.3300     1.077  0.005745
   11.3350     1.168  0.007997
   11.3400     0.902  0.012502
   11.3450     0.645  0.022020
   11.3500     0.348  0.035547
   11.3550     0.092  0.048457
   11.3600     0.016  0.055539
   11.3650     0.007  0.058258
   11.3700     0.005  0.061659
   11.3750     0.004  0.066060
   11.3800     0.065  0.063615
   11.3850     0.280  0.043544
   11.3900     0.462  0.038556
   11.3950     0.524  0.017882
   11.4000     0.434  0.008078
   11.4050     0.334  0.007029
   11.4100     0.453  0.005745
   11.4150     0.836  0.005665
   11.4200     1.205  0.007755
   11.4250     1.080  0.010851
   11.4300     0.744  0.020112
   11.4350     0.424  0.036201
   11.4400     0.132  0.049255
   11.4450     0.025  0.058166
   11.4500     0.007  0.061012
   11.4550     0.005  0.063428
   11.4600     0.004  0.066629
   11.4650     0.042  0.067389
   11.4700     0.278  0.047961
   11.4750     0.464  0.039887
   11.4800     0.434  0.020717
   11.4850     0.328  0.008240
   11.4900     0.260  0.006948
   11.4950     0.342  0.005426
   11.5000     0.687  0.005905
   11.5050     1.130  0.007836
   11.5100     1.140  0.011180
   11.5150     0.804  0.021759
   11.5200     0.494  0.040269
   11.5250     0.192  0.054640
   11.5300     0.040  0.065493
   11.5350     0.011  0.066819
   11.5400     0.005  0.067579
   11.5450     0.003  0.068439
   11.5500     0.011  0.072689
   11.5550     0.216  0.057347
   11.5600     0.435  0.042092
   11.5650     0.453  0.027767
   11.5700     0.313  0.009950
   11.5750     0.268  0.006868
   11.5800     0.306  0.005107
   11.5850     0.572  0.005665
   11.5900     0.993  0.007029
   11.5950     1.132  0.008890
   11.6000     0.839  0.017371
   11.6050     0.570  0.036670
   11.6100     0.316  0.058440
   11.6150     0.097  0.072396
   11.6200     0.019  0.074451
   11.6250     0.006  0.072299
   11.6300     0.003  0.071618
   11.6350     0.005  0.074451
   11.6400     0.148  0.064177
   11.6450     0.380  0.041899
   11.6500     0.458  0.034059
   11.6550     0.293  0.012171
   11.6600     0.237  0.006868
   11.6650     0.228  0.004868
   11.6700     0.371  0.005825
   11.6750     0.730  0.006386
   11.6800     1.067  0.007513
   11.6850     0.936  0.013749
   11.6900     0.643  0.030478
   11.6950     0.426  0.057711
   11.7000     0.193  0.078520
   11.7050     0.043  0.085645
   11.7100     0.009  0.080028
   11.7150     0.005  0.076924
   11.7200     0.005  0.078520
   11.7250     0.067  0.074255
   11.7300     0.329  0.048557
   11.7350     0.435  0.039696
   11.7400     0.236  0.016777
   11.7450     0.162  0.006627
   11.7500     0.175  0.004868
   11.7550     0.225  0.005586
   11.7600     0.458  0.005745
   11.7650     0.884  0.006627
   11.7700     1.093  0.011757
   11.7750     0.856  0.025005
   11.7800     0.580  0.052855
   11.7850     0.294  0.082054
   11.7900     0.084  0.094180
   11.7950     0.019  0.087305
   11.8000     0.007  0.084099
   11.8050     0.005  0.083996
   11.8100     0.010  0.087097
   11.8150     0.228  0.066819
   11.8200     0.388  0.047564
   11.8250     0.244  0.031756
   11.8300     0.101  0.007916
   11.8350     0.134  0.005266
   11.8400     0.202  0.005346
   11.8450     0.334  0.005266
   11.8500     0.656  0.006145
   11.8550     1.030  0.010113
   11.8600     1.019  0.018395
   11.8650     0.773  0.041707
   11.8700     0.480  0.076924
   11.8750     0.191  0.096988
   11.8800     0.053  0.093858
   11.8850     0.016  0.090664
   11.8900     0.007  0.088349
   11.8950     0.005  0.089609
   11.9000     0.102  0.083279
   11.9050     0.338  0.055899
   11.9100     0.362  0.044419
   11.9150     0.133  0.016354
   11.9200     0.117  0.006386
   11.9250     0.219  0.005346
   11.9300     0.375  0.004788
   11.9350     0.629  0.006145
   11.9400     0.959  0.009134
   11.9450     1.044  0.014837
   11.9500     0.863  0.032766
   11.9550     0.637  0.068726
   11.9600     0.323  0.095256
   11.9650     0.118  0.097750
   11.9700     0.038  0.095148
   11.9750     0.011  0.093322
   11.9800     0.006  0.091723
   11.9850     0.017  0.094394
   11.9900     0.266  0.069974
   11.9950     0.397  0.049454
   12.0000     0.230  0.028217
   12.0050     0.126  0.008402
   12.0100     0.211  0.005187
   12.0150     0.415  0.004550
   12.0200     0.684  0.005825
   12.0250     0.954  0.008321
   12.0300     1.009  0.012585
   12.0350     0.840  0.027319
   12.0400     0.655  0.060827
   12.0450     0.412  0.096229
   12.0500     0.165  0.105850
   12.0550     0.054  0.100493
   12.0600     0.016  0.097859
   12.0650     0.006  0.094717
   12.0700     0.007  0.096880
   12.0750     0.189  0.077920
   12.0800     0.372  0.050758
   12.0850     0.311  0.037234
   12.0900     0.144  0.010523
   12.0950     0.179  0.005266
   12.1000     0.361  0.004233
   12.1050     0.632  0.005825
   12.1100     0.902  0.007432
   12.1150     0.980  0.010359
   12.1200     0.820  0.021759
   12.1250     0.655  0.049354
   12.1300     0.465  0.088140
   12.1350     0.211  0.108005
   12.1400     0.066  0.103827
   12.1450     0.019  0.098843
   12.1500     0.007  0.096880
   12.1550     0.006  0.098078
   12.1600     0.106  0.086577
   12.1650     0.340  0.055179
   12.1700     0.399  0.043350
   12.1750     0.230  0.014669
   12.1800     0.230  0.006145
   12.1850     0.404  0.004788
   12.1900     0.657  0.006386
   12.1950     0.920  0.007190
   12.2000     1.010  0.010031
   12.2050     0.862  0.020199
   12.2100     0.700  0.044419
   12.2150     0.519  0.081546
   12.2200     0.262  0.104499
   12.2250     0.094  0.102376
   12.2300     0.031  0.097641
   12.2350     0.011  0.096337
   12.2400     0.006  0.098406
   12.2450     0.041  0.093643
   12.2500     0.298  0.063989
   12.2550     0.421  0.047168
   12.2600     0.301  0.021585
   12.2650     0.267  0.006627
   12.2700     0.435  0.005027
   12.2750     0.703  0.006306
   12.2800     0.954  0.007109
   12.2850     1.024  0.009950
   12.2900     0.871  0.019510
   12.2950     0.707  0.040555
   12.3000     0.522  0.073568
   12.3050     0.267  0.096880
   12.3100     0.092  0.097750
   12.3150     0.028  0.093108
   12.3200     0.011  0.093002
   12.3250     0.005  0.094287
   12.3300     0.023  0.091405
   12.3350     0.251  0.066155
   12.3400     0.389  0.047861
   12.3450     0.325  0.027947
   12.3500     0.259  0.007271
   12.3550     0.402  0.005107
   12.3600     0.667  0.006065
   12.3650     0.927  0.006306
   12.3700     1.005  0.009215
   12.3750     0.854  0.017201
   12.3800     0.682  0.034523
   12.3850     0.511  0.065022
   12.3900     0.279  0.090875
   12.3950     0.087  0.094717
   12.4000     0.023  0.089293
   12.4050     0.009  0.088768
   12.4100     0.005  0.089609
   12.4150     0.016  0.086681
   12.4200     0.237  0.064364
   12.4250     0.394  0.046379
   12.4300     0.373  0.029661
   12.4350     0.301  0.008808
   12.4400     0.426  0.007109
   12.4450     0.675  0.006707
   12.4500     0.937  0.006466
   12.4550     1.033  0.009215
   12.4600     0.883  0.016016
   12.4650     0.695  0.030843
   12.4700     0.513  0.058805
   12.4750     0.279  0.083791
   12.4800     0.090  0.089819
   12.4850     0.022  0.085851
   12.4900     0.009  0.086059
   12.4950     0.005  0.086681
   12.5000     0.011  0.085231
   12.5050     0.202  0.066439
   12.5100     0.372  0.046478
   12.5150     0.396  0.031025
   12.5200     0.322  0.008240
   12.5250     0.425  0.006386
   12.5300     0.671  0.005586
   12.5350     0.936  0.005825
   12.5400     1.071  0.008646
   12.5450     0.929  0.014000
   12.5500     0.721  0.026694
   12.5550     0.524  0.052322
   12.5600     0.279  0.076130
   12.5650     0.086  0.083996
   12.5700     0.020  0.082156
   12.5750     0.008  0.082972
   12.5800     0.004  0.083074
   12.5850     0.008  0.083176
   12.5900     0.167  0.069013
   12.5950     0.346  0.047070
   12.6000     0.406  0.034987
   12.6050     0.318  0.009704
   12.6100     0.383  0.006868
   12.6150     0.592  0.005586
   12.6200     0.869  0.005586
   12.6250     1.104  0.008240
   12.6300     1.060  0.011922
   12.6350     0.832  0.022107
   12.6400     0.611  0.044908
   12.6450     0.325  0.068726
   12.6500     0.104  0.079424
   12.6550     0.027  0.079424
   12.6600     0.009  0.080735
   12.6650     0.005  0.081546
   12.6700     0.006  0.083586
   12.6750     0.114  0.076526
   12.6800     0.308  0.050456
   12.6850     0.413  0.040078
   12.6900     0.335  0.013416
   12.6950     0.356  0.006868
   12.7000     0.556  0.005107
   12.7050     0.834  0.005665
   12.7100     1.095  0.007836
   12.7150     1.101  0.010359
   12.7200     0.865  0.018309
   12.7250     0.628  0.037516
   12.7300     0.349  0.059172
   12.7350     0.109  0.071715
   12.7400     0.025  0.075141
   12.7450     0.008  0.075734
   12.7500     0.004  0.075832
   12.7550     0.004  0.078621
   12.7600     0.070  0.076229
   12.7650     0.281  0.051665
   12.7700     0.417  0.042092
   12.7750     0.376  0.018566
   12.7800     0.370  0.007271
   12.7850     0.523  0.005266
   12.7900     0.766  0.005825
   12.7950     1.063  0.007513
   12.8000     1.154  0.009134
   12.8050     0.932  0.016438
   12.8100     0.687  0.033874
   12.8150     0.389  0.055089
   12.8200     0.127  0.069109
   12.8250     0.030  0.074944
   12.8300     0.009  0.075338
   12.8350     0.005  0.075338
   12.8400     0.005  0.078020
   12.8450     0.028  0.080028
   12.8500     0.250  0.058805
   12.8550     0.416  0.044810
   12.8600     0.399  0.025094
   12.8650     0.350  0.007836
   12.8700     0.453  0.005665
   12.8750     0.635  0.006386
   12.8800     0.969  0.007109
   12.8850     1.217  0.008078
   12.8900     1.099  0.013666
   12.8950     0.829  0.027230
   12.9000     0.480  0.046084
   12.9050     0.166  0.062030
   12.9100     0.043  0.071134
   12.9150     0.013  0.071813
   12.9200     0.007  0.072202
   12.9250     0.004  0.074944
   12.9300     0.009  0.080028
   12.9350     0.195  0.064740
   12.9400     0.385  0.046182
   12.9450     0.412  0.033966
   12.9500     0.300  0.009378
   12.9550     0.366  0.005985
   12.9600     0.541  0.006226
   12.9650     0.856  0.006306
   12.9700     1.170  0.007029
   12.9750     1.151  0.011263
   12.9800     0.887  0.021411
   12.9850     0.579  0.038651
   12.9900     0.222  0.054372
   12.9950     0.056  0.069013
   13.0000     0.014  0.070071
   13.0050     0.007  0.069878
   13.0100     0.005  0.071715
   13.0150     0.006  0.075931
   13.0200     0.138  0.068152
   13.0250     0.366  0.046379
   13.0300     0.469  0.039030
   13.0350     0.392  0.013000
   13.0400     0.419  0.007109
   13.0450     0.520  0.006707
   13.0500     0.779  0.006386
   13.0550     1.137  0.007109
   13.0600     1.224  0.010851
   13.0650     0.982  0.018737
   13.0700     0.663  0.034708
   13.0750     0.272  0.050657
   13.0800     0.071  0.067104
   13.0850     0.018  0.069109
   13.0900     0.008  0.069301
   13.0950     0.005  0.070360
   13.1000     0.004  0.073666
   13.1050     0.064  0.072591
   13.1100     0.315  0.050657
   13.1150     0.459  0.043156
   13.1200     0.371  0.018994
   13.1250     0.344  0.007755
   13.1300     0.429  0.006546
   13.1350     0.642  0.005665
   13.1400     1.011  0.006788
   13.1450     1.224  0.009786
   13.1500     1.054  0.015425
   13.1550     0.774  0.029480
   13.1600     0.396  0.049055
   13.1650     0.113  0.066629
   13.1700     0.028  0.070650
   13.1750     0.010  0.070553
   13.1800     0.006  0.070457
   13.1850     0.004  0.071424
   13.1900     0.021  0.075240
   13.1950     0.286  0.056984
   13.2000     0.474  0.043544
   13.2050     0.409  0.024034
   13.2100     0.326  0.008971
   13.2150     0.337  0.006627
   13.2200     0.461  0.005506
   13.2250     0.803  0.006627
   13.2300     1.170  0.008890
   13.2350     1.171  0.012751
   13.2400     0.901  0.025448
   13.2450     0.538  0.046971
   13.2500     0.190  0.064834
   13.2550     0.050  0.072689
   13.2600     0.015  0.073373
   13.2650     0.007  0.072299
   13.2700     0.005  0.072202
   13.2750     0.009  0.077820
   13.2800     0.223  0.063054
   13.2850     0.421  0.044712
   13.2900     0.333  0.032490
   13.2950     0.193  0.011180
   13.3000     0.227  0.005985
   13.3050     0.320  0.004629
   13.3100     0.575  0.005905
   13.3150     0.984  0.007351
   13.3200     1.180  0.009541
   13.3250     0.976  0.018823
   13.3300     0.687  0.039601
   13.3350     0.333  0.061752
   13.3400     0.096  0.077721
   13.3450     0.023  0.077222
   13.3500     0.007  0.074255
   13.3550     0.005  0.072689
   13.3600     0.005  0.076625
   13.3650     0.099  0.074353
   13.3700     0.369  0.049654
   13.3750     0.446  0.041515
   13.3800     0.275  0.017201
   13.3850     0.256  0.007109
   13.3900     0.300  0.005107
   13.3950     0.453  0.006306
   13.4000     0.805  0.006948
   13.4050     1.142  0.008240
   13.4100     1.083  0.014837
   13.4150     0.805  0.031025
   13.4200     0.489  0.056441
   13.4250     0.179  0.075536
   13.4300     0.040  0.081241
   13.4350     0.010  0.077322
   13.4400     0.006  0.074550
   13.4450     0.004  0.076328
   13.4500     0.030  0.077421
   13.4550     0.297  0.055719
   13.4600     0.432  0.043447
   13.4650     0.255  0.023507
   13.4700     0.186  0.006788
   13.4750     0.269  0.005107
   13.4800     0.411  0.005905
   13.4850     0.714  0.006226
   13.4900     1.058  0.007432
   13.4950     1.089  0.012834
   13.5000     0.835  0.025625
   13.5050     0.571  0.051362
   13.5100     0.272  0.077421
   13.5150     0.077  0.089504
   13.5200     0.015  0.083483
   13.5250     0.006  0.079826
   13.5300     0.005  0.079927
   13.5350     0.008  0.082360
   13.5400     0.226  0.064458
   13.5450     0.406  0.046773
   13.5500     0.264  0.032398
   13.5550     0.123  0.008159
   13.5600     0.168  0.005266
   13.5650     0.293  0.005506
   13.5700     0.537  0.005346
   13.5750     0.914  0.006788
   13.5800     1.109  0.010851
   13.5850     0.926  0.019768
   13.5900     0.687  0.042575
   13.5950     0.406  0.076030
   13.6000     0.142  0.093108
   13.6050     0.033  0.090241
   13.6100     0.011  0.086162
   13.6150     0.005  0.084304
   13.6200     0.005  0.084922
   13.6250     0.114  0.079726
   13.6300     0.338  0.054820
   13.6350     0.350  0.043253
   13.6400     0.130  0.014585
   13.6450     0.117  0.006627
   13.6500     0.233  0.005187
   13.6550     0.448  0.004788
   13.6600     0.795  0.006546
   13.6650     1.075  0.009704
   13.6700     1.000  0.015847
   13.6750     0.772  0.034801
   13.6800     0.527  0.069397
   13.6850     0.234  0.093429
   13.6900     0.063  0.096012
   13.6950     0.016  0.091511
   13.7000     0.007  0.087827
   13.7050     0.006  0.085851
   13.7100     0.030  0.087305
   13.7150     0.287  0.064928
   13.7200     0.402  0.047168
   13.7250     0.169  0.022806
   13.7300     0.095  0.007997
   13.7350     0.168  0.004868
   13.7400     0.346  0.004391
   13.7450     0.659  0.006145
   13.7500     1.003  0.008402
   13.7550     1.056  0.012668
   13.7600     0.856  0.027767
   13.7650     0.637  0.059263
   13.7700     0.335  0.088768
   13.7750     0.099  0.096554
   13.7800     0.025  0.092681
   13.7850     0.008  0.089293
   13.7900     0.005  0.087201
   13.7950     0.011  0.090241
   13.8000     0.231  0.071813
   13.8050     0.410  0.049255
   13.8100     0.242  0.031756
   13.8150     0.095  0.009378
   13.8200     0.140  0.005107
   13.8250     0.311  0.004550
   13.8300     0.628  0.006306
   13.8350     0.983  0.007997
   13.8400     1.080  0.011922
   13.8450     0.907  0.025803
   13.8500     0.703  0.054999
   13.8550     0.387  0.083279
   13.8600     0.133  0.092468
   13.8650     0.042  0.089609
   13.8700     0.014  0.087827
   13.8750     0.007  0.086785
   13.8800     0.006  0.092681
   13.8850     0.149  0.083176
   13.8900     0.369  0.054730
   13.8950     0.351  0.041996
   13.9000     0.126  0.013582
   13.9050     0.131  0.005745
   13.9100     0.284  0.004868
   13.9150     0.588  0.006306
   13.9200     0.961  0.007513
   13.9250     1.132  0.010687
   13.9300     0.991  0.021672
   13.9350     0.791  0.045103
   13.9400     0.455  0.071618
   13.9450     0.164  0.083279
   13.9500     0.055  0.082768
   13.9550     0.017  0.081952
   13.9600     0.008  0.082563
   13.9650     0.006  0.088978
   13.9700     0.069  0.087722
   13.9750     0.321  0.060182
   13.9800     0.447  0.048060
   13.9850     0.223  0.020804
   13.9900     0.181  0.007109
   13.9950     0.308  0.005665
   14.0000     0.581  0.006868
   14.0050     0.956  0.007109
   14.0100     1.170  0.010359
   14.0150     1.061  0.019596
   14.0200     0.852  0.038935
   14.0250     0.482  0.061196
   14.0300     0.188  0.074353
   14.0350     0.067  0.074944
   14.0400     0.022  0.075734
   14.0450     0.009  0.078420
   14.0500     0.005  0.086059
   14.0550     0.037  0.087827
   14.0600     0.277  0.065305
   14.0650     0.424  0.049754
   14.0700     0.185  0.027947
   14.0750     0.096  0.008402
   14.0800     0.175  0.005665
   14.0850     0.425  0.005905
   14.0900     0.847  0.006226
   14.0950     1.160  0.009378
   14.1000     1.098  0.016692
   14.1050     0.891  0.032123
   14.1100     0.541  0.055269
   14.1150     0.218  0.070843
   14.1200     0.084  0.070747
   14.1250     0.030  0.071037
   14.1300     0.011  0.074059
   14.1350     0.006  0.081647
   14.1400     0.012  0.088245
   14.1450     0.226  0.071037
   14.1500     0.414  0.050456
   14.1550     0.276  0.034708
   14.1600     0.127  0.012088
   14.1650     0.185  0.006386
   14.1700     0.410  0.005745
   14.1750     0.797  0.005985
   14.1800     1.144  0.008646
   14.1850     1.127  0.014083
   14.1900     0.920  0.025714
   14.1950     0.599  0.047861
   14.2000     0.237  0.065022
   14.2050     0.088  0.067104
   14.2100     0.031  0.066724
   14.2150     0.011  0.069686
   14.2200     0.006  0.075338
   14.2250     0.007  0.082870
   14.2300     0.186  0.070940
   14.2350     0.386  0.048856
   14.2400     0.360  0.038461
   14.2450     0.179  0.015762
   14.2500     0.222  0.007351
   14.2550     0.440  0.006065
   14.2600     0.808  0.006226
   14.2650     1.150  0.009134
   14.2700     1.145  0.013749
   14.2750     0.941  0.025271
   14.2800     0.630  0.047465
   14.2850     0.267  0.065116
   14.2900     0.110  0.066724
   14.2950     0.041  0.067104
   14.3000     0.014  0.069686
   14.3050     0.006  0.074747
   14.3100     0.006  0.083381
   14.3150     0.139  0.077920
   14.3200     0.347  0.051160
   14.3250     0.368  0.043253
   14.3300     0.147  0.020631
   14.3350     0.139  0.008321
   14.3400     0.288  0.005266
   14.3450     0.628  0.005825
   14.3500     1.056  0.008321
   14.3550     1.175  0.011510
   14.3600     0.976  0.020631
   14.3650     0.708  0.041418
   14.3700     0.308  0.058623
   14.3750     0.113  0.065871
   14.3800     0.043  0.066819
   14.3850     0.014  0.068439
   14.3900     0.006  0.070553
   14.3950     0.005  0.078921
   14.4000     0.061  0.080129
   14.4050     0.289  0.054730
   14.4100     0.419  0.045888
   14.4150     0.238  0.026426
   14.4200     0.172  0.010769
   14.4250     0.301  0.005506
   14.4300     0.615  0.006145
   14.4350     1.024  0.008159
   14.4400     1.182  0.010031
   14.4450     0.995  0.017542
   14.4500     0.748  0.034987
   14.4550     0.352  0.051160
   14.4600     0.120  0.063708
   14.4650     0.041  0.066250
   14.4700     0.013  0.067961
   14.4750     0.007  0.068439
   14.4800     0.005  0.074255
   14.4850     0.039  0.076030
   14.4900     0.271  0.054103
   14.4950     0.426  0.043641
   14.5000     0.258  0.028667
   14.5050     0.156  0.011840
   14.5100     0.234  0.005586
   14.5150     0.478  0.006065
   14.5200     0.901  0.007674
   14.5250     1.190  0.009297
   14.5300     1.078  0.016608
   14.5350     0.826  0.033689
   14.5400     0.440  0.051766
   14.5450     0.162  0.065399
   14.5500     0.062  0.067675
   14.5550     0.021  0.069205
   14.5600     0.007  0.069589
   14.5650     0.006  0.075437
   14.5700     0.019  0.080331
   14.5750     0.236  0.061012
   14.5800     0.399  0.045005
   14.5850     0.283  0.033596
   14.5900     0.148  0.014167
   14.5950     0.189  0.005905
   14.6000     0.362  0.006145
   14.6050     0.733  0.006707
   14.6100     1.128  0.008159
   14.6150     1.144  0.013916
   14.6200     0.910  0.028307
   14.6250     0.554  0.048756
   14.6300     0.210  0.066439
   14.6350     0.075  0.068343
   14.6400     0.026  0.069205
   14.6450     0.009  0.069109
   14.6500     0.006  0.073470
   14.6550     0.007  0.080230
   14.6600     0.180  0.067770
   14.6650     0.377  0.045789
   14.6700     0.358  0.039315
   14.6750     0.150  0.017286
   14.6800     0.140  0.007109
   14.6850     0.240  0.006306
   14.6900     0.522  0.006306
   14.6950     0.992  0.007190
   14.7000     1.197  0.011840
   14.7050     0.998  0.022020
   14.7100     0.692  0.041996
   14.7150     0.281  0.061012
   14.7200     0.092  0.067961
   14.7250     0.030  0.068152
   14.7300     0.011  0.069013
   14.7350     0.006  0.071813
   14.7400     0.005  0.078120
   14.7450     0.123  0.072884
   14.7500     0.327  0.048457
   14.7550     0.389  0.043641
   14.7600     0.162  0.021237
   14.7650     0.122  0.008727
   14.7700     0.187  0.006466
   14.7750     0.402  0.005665
   14.7800     0.834  0.006788
   14.7850     1.173  0.010359
   14.7900     1.065  0.018053
   14.7950     0.798  0.036670
   14.8000     0.386  0.057802
   14.8050     0.128  0.069686
   14.8100     0.042  0.069205
   14.8150     0.014  0.070940
   14.8200     0.005  0.072591
   14.8250     0.004  0.078120
   14.8300     0.048  0.079927
   14.8350     0.268  0.058258
   14.8400     0.416  0.046971
   14.8450     0.234  0.027230
   14.8500     0.150  0.011592
   14.8550     0.204  0.006788
   14.8600     0.387  0.005426
   14.8650     0.781  0.006707
   14.8700     1.147  0.009460
   14.8750     1.095  0.014753
   14.8800     0.857  0.029299
   14.8850     0.484  0.052322
   14.8900     0.158  0.068534
   14.8950     0.046  0.068343
   14.9000     0.015  0.070264
   14.9050     0.006  0.071813
   14.9100     0.004  0.075042
   14.9150     0.017  0.079927
   14.9200     0.227  0.063895
   14.9250     0.411  0.046281
   14.9300     0.221  0.033135
   14.9350     0.087  0.015257
   14.9400     0.101  0.007029
   14.9450     0.214  0.005346
   14.9500     0.533  0.006466
   14.9550     1.010  0.008402
   14.9600     1.172  0.011427
   14.9650     0.973  0.022543
   14.9700     0.672  0.044908
   14.9750     0.277  0.063989
   14.9800     0.107  0.067294
   14.9850     0.035  0.069589
   14.9900     0.011  0.070457
   14.9950     0.006  0.074059
   15.0000     0.007  0.082665
   15.0050     0.152  0.075437
   15.0100     0.357  0.049454
   15.0150     0.340  0.042092
   15.0200     0.131  0.021237
   15.0250     0.135  0.008565
   15.0300     0.253  0.005745
   15.0350     0.560  0.006868
   15.0400     0.998  0.007755
   15.0450     1.208  0.009868
   15.0500     1.030  0.017712
   15.0550     0.743  0.035547
   15.0600     0.337  0.053033
   15.0650     0.127  0.063708
   15.0700     0.044  0.067579
   15.0750     0.012  0.067199
   15.0800     0.006  0.068152
   15.0850     0.005  0.076625
   15.0900     0.066  0.078220
   15.0950     0.297  0.055719
   15.1000     0.400  0.046182
   15.1050     0.116  0.029209
   15.1100     0.081  0.013666
   15.1150     0.158  0.006627
   15.1200     0.404  0.006948
   15.1250     0.863  0.007351
   15.1300     1.196  0.008727
   15.1350     1.105  0.014669
   15.1400     0.869  0.027230
   15.1450     0.469  0.043059
   15.1500     0.222  0.060182
   15.1550     0.090  0.066250
   15.1600     0.027  0.067199
   15.1650     0.009  0.066913
   15.1700     0.006  0.072689
   15.1750     0.009  0.078921
   15.1800     0.219  0.063802
   15.1850     0.442  0.045397
   15.1900     0.255  0.036952
   15.1950     0.113  0.018994
   15.2000     0.189  0.008808
   15.2050     0.457  0.007351
   15.2100     0.888  0.006948
   15.2150     1.222  0.008159
   15.2200     1.185  0.012336
   15.2250     0.943  0.020026
   15.2300     0.546  0.033135
   15.2350     0.243  0.054640
   15.2400     0.099  0.064083
   15.2450     0.030  0.065493
   15.2500     0.010  0.066819
   15.2550     0.006  0.068247
   15.2600     0.005  0.072202
   15.2650     0.139  0.065116
   15.2700     0.347  0.043932
   15.2750     0.363  0.041226
   15.2800     0.137  0.023770
   15.2850     0.184  0.012419
   15.2900     0.443  0.007432
   15.2950     0.850  0.006226
   15.3000     1.178  0.007674
   15.3050     1.179  0.010687
   15.3100     0.976  0.016185
   15.3150     0.665  0.028127
   15.3200     0.256  0.045299
   15.3250     0.086  0.062402
   15.3300     0.026  0.067009
   15.3350     0.011  0.067199
   15.3400     0.005  0.067294
   15.3450     0.005  0.067389
   15.3500     0.055  0.065305
   15.3550     0.303  0.046379
   15.3600     0.459  0.038651
   15.3650     0.116  0.026248
   15.3700     0.089  0.014585
   15.3750     0.250  0.007190
   15.3800     0.669  0.006145
   15.3850     1.099  0.007271
   15.3900     1.217  0.009704
   15.3950     1.061  0.013083
   15.4000     0.832  0.022981
   15.4050     0.403  0.037611
   15.4100     0.143  0.058166
   15.4150     0.047  0.066250
   15.4200     0.016  0.069589
   15.4250     0.007  0.069013
   15.4300     0.005  0.068439
   15.4350     0.015  0.068343
   15.4400     0.238  0.051160
   15.4450     0.448  0.036014
   15.4500     0.242  0.031025
   15.4550     0.112  0.017371
   15.4600     0.257  0.007755
   15.4650     0.662  0.005905
   15.4700     1.058  0.007271
   15.4750     1.214  0.008808
   15.4800     1.155  0.011263
   15.4850     1.028  0.019510
   15.4900     0.671  0.033227
   15.4950     0.257  0.051060
   15.5000     0.075  0.062216
   15.5050     0.021  0.067199
   15.5100     0.008  0.068343
   15.5150     0.006  0.067199
   15.5200     0.007  0.068152
   15.5250     0.159  0.056260
   15.5300     0.399  0.035267
   15.5350     0.292  0.034615
   15.5400     0.046  0.021064
   15.5450     0.076  0.009134
   15.5500     0.354  0.005665
   15.5550     0.856  0.006788
   15.5600     1.145  0.007351
   15.5650     1.128  0.009052
   15.5700     1.029  0.015510
   15.5750     0.832  0.027140
   15.5800     0.430  0.039125
   15.5850     0.131  0.057075
   15.5900     0.031  0.063802
   15.5950     0.010  0.065305
   15.6000     0.007  0.065777
   15.6050     0.006  0.065871
   15.6100     0.069  0.058258
   15.6150     0.321  0.037611
   15.6200     0.494  0.034337
   15.6250     0.146  0.023770
   15.6300     0.119  0.010277
   15.6350     0.393  0.006466
   15.6400     0.864  0.007029
   15.6450     1.121  0.007271
   15.6500     1.140  0.009052
   15.6550     1.087  0.015089
   15.6600     0.941  0.025094
   15.6650     0.559  0.037611
   15.6700     0.213  0.055359
   15.6750     0.054  0.063147
   15.6800     0.015  0.065022
   15.6850     0.007  0.066724
   15.6900     0.006  0.067961
   15.6950     0.023  0.063989
   15.7000     0.266  0.044517
   15.7050     0.504  0.034708
   15.7100     0.178  0.027498
   15.7150     0.062  0.012253
   15.7200     0.204  0.006627
   15.7250     0.681  0.006948
   15.7300     1.077  0.006707
   15.7350     1.151  0.008646
   15.7400     1.102  0.013499
   15.7450     1.011  0.021846
   15.7500     0.703  0.034801
   15.7550     0.316  0.050657
   15.7600     0.097  0.061289
   15.7650     0.026  0.063802
   15.7700     0.010  0.066060
   15.7750     0.005  0.067199
   15.7800     0.010  0.064364
   15.7850     0.184  0.049454
   15.7900     0.454  0.033596
   15.7950     0.308  0.030934
   15.8000     0.057  0.015005
   15.8050     0.115  0.007674
   15.8100     0.495  0.006627
   15.8150     0.991  0.006306
   15.8200     1.156  0.008159
   15.8250     1.118  0.011922
   15.8300     1.039  0.018395
   15.8350     0.803  0.032031
   15.8400     0.410  0.044224
   15.8450     0.136  0.058988
   15.8500     0.035  0.063428
   15.8550     0.011  0.066060
   15.8600     0.007  0.066819
   15.8650     0.007  0.065022
   15.8700     0.117  0.055449
   15.8750     0.367  0.036107
   15.8800     0.465  0.033411
   15.8850     0.109  0.018480
   15.8900     0.113  0.008484
   15.8950     0.410  0.006145
   15.9000     0.908  0.005985
   15.9050     1.132  0.008078
   15.9100     1.118  0.011016
   15.9150     1.043  0.016608
   15.9200     0.860  0.029571
   15.9250     0.477  0.042189
   15.9300     0.176  0.056803
   15.9350     0.045  0.063334
   15.9400     0.014  0.065871
   15.9450     0.006  0.066060
   15.9500     0.006  0.065305
   15.9550     0.062  0.059906
   15.9600     0.318  0.039982
   15.9650     0.528  0.034430
   15.9700     0.126  0.021324
   15.9750     0.083  0.009134
   15.9800     0.303  0.006065
   15.9850     0.796  0.006226
   15.9900     1.116  0.007916
   15.9950     1.181  0.009623
   16.0000     1.151  0.014502
   16.0050     1.021  0.026248
   16.0100     0.659  0.039982
   16.0150     0.284  0.052766
   16.0200     0.087  0.061938
   16.0250     0.023  0.065305
   16.0300     0.009  0.066344
   16.0350     0.008  0.066819
   16.0400     0.041  0.062774
   16.0450     0.282  0.042768
   16.0500     0.502  0.033689
   16.0550     0.169  0.023244
   16.0600     0.060  0.009215
   16.0650     0.188  0.005506
   16.0700     0.643  0.005825
   16.0750     1.036  0.007351
   16.0800     1.150  0.008808
   16.0850     1.135  0.012834
   16.0900     1.048  0.023770
   16.0950     0.744  0.038272
   16.1000     0.342  0.049454
   16.1050     0.106  0.061659
   16.1100     0.025  0.065399
   16.1150     0.009  0.066155
   16.1200     0.007  0.067484
   16.1250     0.026  0.065399
   16.1300     0.238  0.047366
   16.1350     0.459  0.035267
   16.1400     0.250  0.027140
   16.1450     0.079  0.010359
   16.1500     0.172  0.005586
   16.1550     0.559  0.005665
   16.1600     0.969  0.007029
   16.1650     1.118  0.007836
   16.1700     1.113  0.012005
   16.1750     1.071  0.021324
   16.1800     0.831  0.035267
   16.1850     0.412  0.046576
   16.1900     0.129  0.060366
   16.1950     0.033  0.063521
   16.2000     0.011  0.064740
   16.2050     0.007  0.066724
   16.2100     0.019  0.065682
   16.2150     0.215  0.048756
   16.2200     0.453  0.034708
   16.2250     0.290  0.028667
   16.2300     0.059  0.011180
   16.2350     0.098  0.005665
   16.2400     0.378  0.005745
   16.2450     0.849  0.006627
   16.2500     1.054  0.007271
   16.2550     1.017  0.011427
   16.2600     0.959  0.019940
   16.2650     0.792  0.032858
   16.2700     0.400  0.044127
   16.2750     0.119  0.059906
   16.2800     0.031  0.064552
   16.2850     0.011  0.064740
   16.2900     0.007  0.065871
   16.2950     0.016  0.063895
   16.3000     0.189  0.048259
   16.3050     0.441  0.033874
   16.3100     0.300  0.029661
   16.3150     0.039  0.012088
   16.3200     0.043  0.005985
   16.3250     0.186  0.005506
   16.3300     0.638  0.005825
   16.3350     0.975  0.006788
   16.3400     0.961  0.011345
   16.3450     0.866  0.020285
   16.3500     0.713  0.034708
   16.3550     0.326  0.048159
   16.3600     0.110  0.064270
   16.3650     0.038  0.068247
   16.3700     0.013  0.068343
   16.3750     0.007  0.068439
   16.3800     0.009  0.067294
   16.3850     0.140  0.055629
   16.3900     0.369  0.036388
   16.3950     0.425  0.034059
   16.4000     0.083  0.015931
   16.4050     0.046  0.006546
   16.4100     0.143  0.005586
   16.4150     0.507  0.005426
   16.4200     0.892  0.006386
   16.4250     0.955  0.010523
   16.4300     0.854  0.018309
   16.4350     0.746  0.034430
   16.4400     0.435  0.053478
   16.4450     0.143  0.068343
   16.4500     0.051  0.069686
   16.4550     0.017  0.071618
   16.4600     0.007  0.071134
   16.4650     0.007  0.070071
   16.4700     0.082  0.063615
   16.4750     0.318  0.041515
   16.4800     0.450  0.036858
   16.4850     0.087  0.020631
   16.4900     0.027  0.007674
   16.4950     0.062  0.005506
   16.5000     0.317  0.004550
   16.5050     0.782  0.005905
   16.5100     0.980  0.008808
   16.5150     0.887  0.014251
   16.5200     0.769  0.027947
   16.5250     0.547  0.051665
   16.5300     0.192  0.067579
   16.5350     0.058  0.070940
   16.5400     0.020  0.072884
   16.5450     0.008  0.072396
   16.5500     0.004  0.070650
   16.5550     0.041  0.068056
   16.5600     0.279  0.047366
   16.5650     0.475  0.037422
   16.5700     0.137  0.023507
   16.5750     0.029  0.009460
   16.5800     0.049  0.005745
   16.5850     0.230  0.004550
   16.5900     0.705  0.005905
   16.5950     1.019  0.008159
   16.6000     0.986  0.011427
   16.6050     0.856  0.022369
   16.6100     0.634  0.043156
   16.6150     0.241  0.059906
   16.6200     0.077  0.069589
   16.6250     0.024  0.072396
   16.6300     0.009  0.071715
   16.6350     0.006  0.070264
   16.6400     0.023  0.068439
   16.6450     0.231  0.050356
   16.6500     0.412  0.035920
   16.6550     0.202  0.027409
   16.6600     0.032  0.012253
   16.6650     0.035  0.005745
   16.6700     0.144  0.004153
   16.6750     0.547  0.005745
   16.6800     0.969  0.007109
   16.6850     1.014  0.009541
   16.6900     0.897  0.018138
   16.6950     0.701  0.035453
   16.7000     0.284  0.052855
   16.7050     0.098  0.067961
   16.7100     0.033  0.071618
   16.7150     0.010  0.069974
   16.7200     0.006  0.069589
   16.7250     0.008  0.070457
   16.7300     0.168  0.057802
   16.7350     0.381  0.036764
   16.7400     0.304  0.033504
   16.7450     0.041  0.016862
   16.7500     0.026  0.006627
   16.7550     0.069  0.004629
   16.7600     0.340  0.005905
   16.7650     0.870  0.006788
   16.7700     1.092  0.008646
   16.7750     0.959  0.015678
   16.7800     0.771  0.030660
   16.7850     0.346  0.048457
   16.7900     0.138  0.067009
   16.7950     0.053  0.071327
   16.8000     0.017  0.068726
   16.8050     0.007  0.068726
   16.8100     0.006  0.071037
   16.8150     0.097  0.064364
   16.8200     0.324  0.040173
   16.8250     0.396  0.037046
   16.8300     0.078  0.022107
   16.8350     0.027  0.008484
   16.8400     0.065  0.004948
   16.8450     0.292  0.005745
   16.8500     0.802  0.006466
   16.8550     1.116  0.008078
   16.8600     1.036  0.014000
   16.8650     0.881  0.025892
   16.8700     0.482  0.042285
   16.8750     0.213  0.063802
   16.8800     0.094  0.070264
   16.8850     0.031  0.067675
   16.8900     0.011  0.068534
   16.8950     0.007  0.071037
   16.9000     0.044  0.065588
   16.9050     0.285  0.043156
   16.9100     0.444  0.035640
   16.9150     0.194  0.025182
   16.9200     0.059  0.010769
   16.9250     0.111  0.005506
   16.9300     0.373  0.005825
   16.9350     0.873  0.006065
   16.9400     1.137  0.008321
   16.9450     1.017  0.014000
   16.9500     0.825  0.024828
   16.9550     0.406  0.040269
   16.9600     0.167  0.062774
   16.9650     0.069  0.069589
   16.9700     0.022  0.067104
   16.9750     0.010  0.067294
   16.9800     0.006  0.069013
   16.9850     0.033  0.064928
   16.9900     0.257  0.045299
   16.9950     0.418  0.036201
   17.0000     0.263  0.027947
   17.0050     0.132  0.013249
   17.0100     0.200  0.006546
   17.0150     0.488  0.005985
   17.0200     0.914  0.005985
   17.0250     1.091  0.008808
   17.0300     0.947  0.014921
   17.0350     0.783  0.026337
   17.0400     0.424  0.042768
   17.0450     0.176  0.063708
   17.0500     0.081  0.069782
   17.0550     0.029  0.068152
   17.0600     0.010  0.069301
   17.0650     0.006  0.071037
   17.0700     0.024  0.067009
   17.0750     0.247  0.047465
   17.0800     0.430  0.035733
   17.0850     0.306  0.028307
   17.0900     0.133  0.013666
   17.0950     0.183  0.006627
   17.1000     0.475  0.005825
   17.1050     0.944  0.006306
   17.1100     1.136  0.009378
   17.1150     0.991  0.015425
   17.1200     0.809  0.026961
   17.1250     0.429  0.043447
   17.1300     0.204  0.063802
   17.1350     0.099  0.069013
   17.1400     0.036  0.068152
   17.1450     0.012  0.070457
   17.1500     0.005  0.072299
   17.1550     0.016  0.070360
   17.1600     0.240  0.051867
   17.1650     0.441  0.037422
   17.1700     0.340  0.030115
   17.1750     0.150  0.015425
   17.1800     0.195  0.007432
   17.1850     0.479  0.005985
   17.1900     0.945  0.006707
   17.1950     1.152  0.010113
   17.2000     0.998  0.015931
   17.2050     0.807  0.028217
   17.2100     0.430  0.044322
   17.2150     0.213  0.062961
   17.2200     0.109  0.067484
   17.2250     0.041  0.068439
   17.2300     0.014  0.070553
   17.2350     0.007  0.072689
   17.2400     0.018  0.071134
   17.2450     0.242  0.052677
   17.2500     0.437  0.037988
   17.2550     0.376  0.030569
   17.2600     0.211  0.015510
   17.2650     0.279  0.007271
   17.2700     0.589  0.005745
   17.2750     1.009  0.007109
   17.2800     1.144  0.010605
   17.2850     0.968  0.016862
   17.2900     0.763  0.030115
   17.2950     0.388  0.046379
   17.3000     0.176  0.062681
   17.3050     0.080  0.067199
   17.3100     0.028  0.069493
   17.3150     0.009  0.070747
   17.3200     0.005  0.072007
   17.3250     0.025  0.071424
   17.3300     0.249  0.052145
   17.3350     0.428  0.039220
   17.3400     0.381  0.030751
   17.3450     0.255  0.015510
   17.3500     0.337  0.007109
   17.3550     0.643  0.005985
   17.3600     1.030  0.007755
   17.3650     1.122  0.011757
   17.3700     0.928  0.018737
   17.3750     0.706  0.034615
   17.3800     0.328  0.050758
   17.3850     0.136  0.063147
   17.3900     0.059  0.066913
   17.3950     0.022  0.069589
   17.4000     0.008  0.070071
   17.4050     0.005  0.071037
   17.4100     0.043  0.067865
   17.4150     0.274  0.046576
   17.4200     0.442  0.038840
   17.4250     0.401  0.027767
   17.4300     0.322  0.013499
   17.4350     0.443  0.006627
   17.4400     0.757  0.006065
   17.4450     1.071  0.008565
   17.4500     1.065  0.012751
   17.4550     0.855  0.021411
   17.4600     0.616  0.039315
   17.4650     0.260  0.054820
   17.4700     0.090  0.063802
   17.4750     0.034  0.066724
   17.4800     0.013  0.069013
   17.4850     0.006  0.068822
   17.4900     0.005  0.070264
   17.4950     0.082  0.065966
   17.5000     0.298  0.042672
   17.5050     0.453  0.039220
   17.5100     0.362  0.024652
   17.5150     0.267  0.011345
   17.5200     0.389  0.005985
   17.5250     0.719  0.006065
   17.5300     1.065  0.008484
   17.5350     1.050  0.012336
   17.5400     0.803  0.021151
   17.5450     0.559  0.039220
   17.5500     0.220  0.053478
   17.5550     0.050  0.062123
   17.5600     0.016  0.064270
   17.5650     0.008  0.065871
   17.5700     0.005  0.066155
   17.5750     0.007  0.067294
   17.5800     0.141  0.057984
   17.5850     0.348  0.038272
   17.5900     0.485  0.036014
   17.5950     0.385  0.018823
   17.6000     0.322  0.008484
   17.6050     0.454  0.005825
   17.6100     0.788  0.006707
   17.6150     1.106  0.009378
   17.6200     1.036  0.014418
   17.6250     0.773  0.026515
   17.6300     0.500  0.047663
   17.6350     0.180  0.061752
   17.6400     0.039  0.064928
   17.6450     0.012  0.065966
   17.6500     0.006  0.067579
   17.6550     0.004  0.069013
   17.6600     0.010  0.071134
   17.6650     0.183  0.056894
   17.6700     0.384  0.039887
   17.6750     0.493  0.033966
   17.6800     0.327  0.015341
   17.6850     0.281  0.007109
   17.6900     0.441  0.005665
   17.6950     0.808  0.006868
   17.7000     1.114  0.009950
   17.7050     0.985  0.015510
   17.7100     0.709  0.030387
   17.7150     0.445  0.053122
   17.7200     0.152  0.066724
   17.7250     0.031  0.066819
   17.7300     0.011  0.067009
   17.7350     0.006  0.068343
   17.7400     0.005  0.070360
   17.7450     0.019  0.071230
   17.7500     0.222  0.052589
   17.7550     0.428  0.039315
   17.7600     0.517  0.029389
   17.7650     0.317  0.012253
   17.7700     0.268  0.006868
   17.7750     0.424  0.005586
   17.7800     0.794  0.007432
   17.7850     1.098  0.010113
   17.7900     0.935  0.016608
   17.7950     0.645  0.034337
   17.8000     0.404  0.059538
   17.8050     0.145  0.072884
   17.8100     0.027  0.069782
   17.8150     0.008  0.069493
   17.8200     0.005  0.071521
   17.8250     0.005  0.073666
   17.8300     0.039  0.071521
   17.8350     0.275  0.049155
   17.8400     0.477  0.039410
   17.8450     0.462  0.024828
   17.8500     0.215  0.009460
   17.8550     0.172  0.005905
   17.8600     0.306  0.005346
   17.8650     0.672  0.007109
   17.8700     1.025  0.009623
   17.8750     0.875  0.016608
   17.8800     0.594  0.037328
   17.8850     0.397  0.068247
   17.8900     0.158  0.083176
   17.8950     0.027  0.078420
   17.9000     0.009  0.075042
   17.9050     0.005  0.076328
   17.9100     0.005  0.078621
   17.9150     0.037  0.075832
   17.9200     0.291  0.050557
   17.9250     0.528  0.039696
   17.9300     0.443  0.021759
   17.9350     0.166  0.008484
   17.9400     0.137  0.005346
   17.9450     0.255  0.005506
   17.9500     0.612  0.007029
   17.9550     0.973  0.008890
   17.9600     0.827  0.015089
   17.9650     0.559  0.034152
   17.9700     0.387  0.063802
   17.9750     0.176  0.080129
   17.9800     0.033  0.078420
   17.9850     0.007  0.074157
   17.9900     0.004  0.076229
   17.9950     0.005  0.079424
   18.0000     0.059  0.073079
   18.0050     0.298  0.047762
   18.0100     0.490  0.038272
   18.0150     0.495  0.018395
   18.0200     0.269  0.007593
   18.0250     0.199  0.005027
   18.0300     0.295  0.005187
   18.0350     0.602  0.006226
   18.0400     0.882  0.006948
   18.0450     0.757  0.012088
   18.0500     0.539  0.026604
   18.0550     0.410  0.051968
   18.0600     0.225  0.068822
   18.0650     0.054  0.075141
   18.0700     0.009  0.069878
   18.0750     0.005  0.072981
   18.0800     0.006  0.076130
   18.0850     0.064  0.068630
   18.0900     0.293  0.045103
   18.0950     0.508  0.037234
   18.1000     0.538  0.018395
   18.1050     0.274  0.007674
   18.1100     0.191  0.005426
   18.1150     0.271  0.005825
   18.1200     0.572  0.006226
   18.1250     0.899  0.007271
   18.1300     0.773  0.013166
   18.1350     0.542  0.028847
   18.1400     0.393  0.052855
   18.1450     0.200  0.068726
   18.1500     0.046  0.073764
   18.1550     0.008  0.070457
   18.1600     0.005  0.073666
   18.1650     0.006  0.077421
   18.1700     0.066  0.069589
   18.1750     0.291  0.045299
   18.1800     0.461  0.037611
   18.1850     0.456  0.018395
   18.1900     0.233  0.006788
   18.1950     0.148  0.004948
   18.2000     0.192  0.005266
   18.2050     0.441  0.005266
   18.2100     0.783  0.005665
   18.2150     0.773  0.010523
   18.2200     0.551  0.022893
   18.2250     0.418  0.047366
   18.2300     0.246  0.070264
   18.2350     0.068  0.080230
   18.2400     0.010  0.073275
   18.2450     0.005  0.075338
   18.2500     0.005  0.080533
   18.2550     0.025  0.077123
   18.2600     0.251  0.052855
   18.2650     0.441  0.039410
   18.2700     0.474  0.021498
   18.2750     0.231  0.006868
   18.2800     0.122  0.005346
   18.2850     0.122  0.005107
   18.2900     0.271  0.004391
   18.2950     0.605  0.004550
   18.3000     0.776  0.007271
   18.3050     0.612  0.013249
   18.3100     0.462  0.030206
   18.3150     0.340  0.059080
   18.3200     0.159  0.077421
   18.3250     0.031  0.077820
   18.3300     0.006  0.074550
   18.3350     0.004  0.079826
   18.3400     0.010  0.081140
   18.3450     0.181  0.062123
   18.3500     0.394  0.041803
   18.3550     0.493  0.027678
   18.3600     0.261  0.007755
   18.3650     0.123  0.005665
   18.3700     0.093  0.005107
   18.3750     0.163  0.003995
   18.3800     0.441  0.004391
   18.3850     0.713  0.006065
   18.3900     0.649  0.009460
   18.3950     0.480  0.020717
   18.4000     0.373  0.048060
   18.4050     0.251  0.078120
   18.4100     0.087  0.089293
   18.4150     0.013  0.081444
   18.4200     0.003  0.081444
   18.4250     0.005  0.084510
   18.4300     0.093  0.074255
   18.4350     0.344  0.047663
   18.4400     0.482  0.034708
   18.4450     0.316  0.009541
   18.4500     0.141  0.006707
   18.4550     0.065  0.005506
   18.4600     0.068  0.004312
   18.4650     0.203  0.004391
   18.4700     0.643  0.006065
   18.4750     0.853  0.007674
   18.4800     0.605  0.016269
   18.4850     0.426  0.040269
   18.4900     0.293  0.073470
   18.4950     0.121  0.090558
   18.5000     0.022  0.086785
   18.5050     0.004  0.082054
   18.5100     0.004  0.084613
   18.5150     0.028  0.083279
   18.5200     0.295  0.057893
   18.5250     0.478  0.040173
   18.5300     0.325  0.016100
   18.5350     0.118  0.007674
   18.5400     0.045  0.005905
   18.5450     0.035  0.004471
   18.5500     0.073  0.004629
   18.5550     0.346  0.005346
   18.5600     0.875  0.006707
   18.5650     0.804  0.013000
   18.5700     0.507  0.032123
   18.5750     0.344  0.068726
   18.5800     0.178  0.096446
   18.5850     0.040  0.098734
   18.5900     0.006  0.087722
   18.5950     0.004  0.086059
   18.6000     0.007  0.089293
   18.6050     0.202  0.069301
   18.6100     0.433  0.045201
   18.6150     0.418  0.026872
   18.6200     0.192  0.008646
   18.6250     0.087  0.006226
   18.6300     0.042  0.004868
   18.6350     0.061  0.004868
   18.6400     0.234  0.004948
   18.6450     0.736  0.006306
   18.6500     0.964  0.011592
   18.6550     0.637  0.026426
   18.6600     0.411  0.061012
   18.6650     0.229  0.098734
   18.6700     0.062  0.108462
   18.6750     0.010  0.094609
   18.6800     0.004  0.090030
   18.6850     0.004  0.092255
   18.6900     0.100  0.081851
   18.6950     0.373  0.051867
   18.7000     0.438  0.038177
   18.7050     0.205  0.010851
   18.7100     0.120  0.006145
   18.7150     0.082  0.004868
   18.7200     0.099  0.005506
   18.7250     0.256  0.005187
   18.7300     0.673  0.006226
   18.7350     0.975  0.010605
   18.7400     0.735  0.022281
   18.7450     0.482  0.054730
   18.7500     0.295  0.100052
   18.7550     0.097  0.116695
   18.7600     0.017  0.104612
   18.7650     0.007  0.095688
   18.7700     0.004  0.094825
   18.7750     0.023  0.093002
   18.7800     0.297  0.064834
   18.7850     0.446  0.045888
   18.7900     0.300  0.018994
   18.7950     0.173  0.006546
   18.8000     0.164  0.005266
   18.8050     0.165  0.005426
   18.8100     0.308  0.005027
   18.8150     0.667  0.006386
   18.8200     0.989  0.009950
   18.8250     0.827  0.018823
   18.8300     0.555  0.044712
   18.8350     0.359  0.090030
   18.8400     0.152  0.115334
   18.8450     0.030  0.109148
   18.8500     0.007  0.098187
   18.8550     0.004  0.094502
   18.8600     0.009  0.093536
   18.8650     0.227  0.070553
   18.8700     0.444  0.047366
   18.8750     0.414  0.026426
   18.8800     0.255  0.007351
   18.8850     0.236  0.006226
   18.8900     0.226  0.005506
   18.8950     0.346  0.005346
   18.9000     0.666  0.006788
   18.9050     1.002  0.010113
   18.9100     0.925  0.018480
   18.9150     0.666  0.044615
   18.9200     0.432  0.087931
   18.9250     0.186  0.112943
   18.9300     0.044  0.109950
   18.9350     0.011  0.102265
   18.9400     0.006  0.098406
   18.9450     0.005  0.097641
   18.9500     0.138  0.084819
   18.9550     0.384  0.054282
   18.9600     0.430  0.037140
   18.9650     0.259  0.009052
   18.9700     0.236  0.006466
   18.9750     0.274  0.005266
   18.9800     0.388  0.005107
   18.9850     0.671  0.006948
   18.9900     1.004  0.009541
   18.9950     0.991  0.016354
   19.0000     0.744  0.038177
   19.0050     0.495  0.076824
   19.0100     0.235  0.105399
   19.0150     0.063  0.107778
   19.0200     0.015  0.101156
   19.0250     0.007  0.096446
   19.0300     0.005  0.094825
   19.0350     0.051  0.091723
   19.0400     0.315  0.061752
   19.0450     0.452  0.043835
   19.0500     0.350  0.014502
   19.0550     0.282  0.007190
   19.0600     0.316  0.005426
   19.0650     0.399  0.005187
   19.0700     0.642  0.007109
   19.0750     0.984  0.008890
   19.0800     1.054  0.014669
   19.0850     0.813  0.032950
   19.0900     0.550  0.066534
   19.0950     0.287  0.095472
   19.1000     0.085  0.103715
   19.1050     0.018  0.099172
   19.1100     0.007  0.094717
   19.1150     0.006  0.092788
   19.1200     0.020  0.092895
   19.1250     0.264  0.066819
   19.1300     0.425  0.045986
   19.1350     0.397  0.021237
   19.1400     0.302  0.007513
   19.1450     0.335  0.005027
   19.1500     0.411  0.005346
   19.1550     0.625  0.006948
   19.1600     0.949  0.008565
   19.1650     1.078  0.013333
   19.1700     0.865  0.029299
   19.1750     0.593  0.058805
   19.1800     0.329  0.088873
   19.1850     0.111  0.100382
   19.1900     0.025  0.097532
   19.1950     0.009  0.092575
   19.2000     0.005  0.091617
   19.2050     0.012  0.092149
   19.2100     0.220  0.069493
   19.2150     0.397  0.046675
   19.2200     0.387  0.026872
   19.2250     0.249  0.007755
   19.2300     0.252  0.004629
   19.2350     0.309  0.004868
   19.2400     0.479  0.006226
   19.2450     0.826  0.007109
   19.2500     1.085  0.011345
   19.2550     0.947  0.024122
   19.2600     0.661  0.050356
   19.2650     0.401  0.082461
   19.2700     0.159  0.099063
   19.2750     0.036  0.098187
   19.2800     0.011  0.092681
   19.2850     0.007  0.091299
   19.2900     0.007  0.092788
   19.2950     0.160  0.076030
   19.3000     0.370  0.049255
   19.3050     0.446  0.034059
   19.3100     0.335  0.008971
   19.3150     0.321  0.005506
   19.3200     0.369  0.005745
   19.3250     0.514  0.006386
   19.3300     0.823  0.006948
   19.3350     1.083  0.011098
   19.3400     0.981  0.022369
   19.3450     0.707  0.045789
   19.3500     0.434  0.077521
   19.3550     0.183  0.095580
   19.3600     0.043  0.096446
   19.3650     0.011  0.091617
   19.3700     0.006  0.090558
   19.3750     0.007  0.091299
   19.3800     0.139  0.076625
   19.3850     0.373  0.049554
   19.3900     0.453  0.035827
   19.3950     0.284  0.008971
   19.4000     0.228  0.005665
   19.4050     0.230  0.005665
   19.4100     0.335  0.005586
   19.4150     0.636  0.006386
   19.4200     1.014  0.010031
   19.4250     1.056  0.019080
   19.4300     0.805  0.040555
   19.4350     0.524  0.073960
   19.4400     0.235  0.094825
   19.4450     0.063  0.097750
   19.4500     0.015  0.093322
   19.4550     0.007  0.093536
   19.4600     0.005  0.093751
   19.4650     0.083  0.085128
   19.4700     0.322  0.055719
   19.4750     0.429  0.042092
   19.4800     0.267  0.012005
   19.4850     0.194  0.006145
   19.4900     0.233  0.005426
   19.4950     0.337  0.005346
   19.5000     0.605  0.005825
   19.5050     0.973  0.009297
   19.5100     1.071  0.016185
   19.5150     0.845  0.034801
   19.5200     0.577  0.068343
   19.5250     0.287  0.094502
   19.5300     0.085  0.099502
   19.5350     0.019  0.093965
   19.5400     0.007  0.092468
   19.5450     0.005  0.092362
   19.5500     0.035  0.088978
   19.5550     0.276  0.062961
   19.5600     0.426  0.045299
   19.5650     0.348  0.018395
   19.5700     0.239  0.007029
   19.5750     0.261  0.005665
   19.5800     0.347  0.005187
   19.5850     0.600  0.006386
   19.5900     0.967  0.009215
   19.5950     1.084  0.015425
   19.6000     0.875  0.032306
   19.6050     0.609  0.064270
   19.6100     0.324  0.090664
   19.6150     0.099  0.098078
   19.6200     0.024  0.093643
   19.6250     0.008  0.091830
   19.6300     0.006  0.090981
   19.6350     0.020  0.089925
   19.6400     0.244  0.066724
   19.6450     0.422  0.046084
   19.6500     0.357  0.023156
   19.6550     0.201  0.007836
   19.6600     0.189  0.005586
   19.6650     0.249  0.004788
   19.6700     0.469  0.006065
   19.6750     0.861  0.008565
   19.6800     1.094  0.012751
   19.6850     0.938  0.026872
   19.6900     0.671  0.056803
   19.6950     0.371  0.084716
   19.7000     0.124  0.094717
   19.7050     0.030  0.092042
   19.7100     0.009  0.090452
   19.7150     0.006  0.090030
   19.7200     0.012  0.090558
   19.7250     0.190  0.071910
   19.7300     0.375  0.047961
   19.7350     0.391  0.030934
   19.7400     0.204  0.009052
   19.7450     0.170  0.005665
   19.7500     0.220  0.004948
   19.7550     0.431  0.006466
   19.7600     0.825  0.008484
   19.7650     1.088  0.012502
   19.7700     0.961  0.026337
   19.7750     0.714  0.054461
   19.7800     0.414  0.081851
   19.7850     0.145  0.092468
   19.7900     0.037  0.090452
   19.7950     0.011  0.089609
   19.8000     0.006  0.089925
   19.8050     0.007  0.091617
   19.8100     0.160  0.077123
   19.8150     0.382  0.049854
   19.8200     0.403  0.036388
   19.8250     0.142  0.010441
   19.8300     0.094  0.006065
   19.8350     0.143  0.005187
   19.8400     0.331  0.006707
   19.8450     0.733  0.007997
   19.8500     1.071  0.011427
   19.8550     0.999  0.023770
   19.8600     0.770  0.049955
   19.8650     0.458  0.075832
   19.8700     0.170  0.087097
   19.8750     0.052  0.085645
   19.8800     0.016  0.086993
   19.8850     0.007  0.088559
   19.8900     0.006  0.091511
   19.8950     0.088  0.085231
   19.9000     0.303  0.055539
   19.9050     0.454  0.044224
   19.9100     0.184  0.016777
   19.9150     0.099  0.006868
   19.9200     0.146  0.005586
   19.9250     0.347  0.006788
   19.9300     0.757  0.007916
   19.9350     1.099  0.010933
   19.9400     1.046  0.021411
   19.9450     0.829  0.043059
   19.9500     0.481  0.064083
   19.9550     0.206  0.076229
   19.9600     0.078  0.076328
   19.9650     0.027  0.079323
   19.9700     0.011  0.082156
   19.9750     0.007  0.086681
   19.9800     0.027  0.089188
   19.9850     0.246  0.066724
   19.9900     0.524  0.049554
   19.9950     0.240  0.027857
